"","subject","trigger","prime.x","list.x","target","stemid","correct_response","target.resp","target.acc","target.rt","target.rt.trm.err","relatedness","w_word","stem","affix","whl_word_len","afx_len","stem_len","transp","afx_onset","stem_frq","stem_logfrq","whl_word_freq","whl_word_logfrq","rel_frq","prime.y","afx_frq","med_splt","r1_splt","r1.5_splt","list.y","new.rt","log.rt","inverse.rt"
"1",7,1,"breadth","List1","bread",1,6,6,1,469,469,"related","breadth","bread","th",7,2,5,"opaque","consonant",76.9836,1.89200328,4.40246,0.73259156,2.58261681,"breadth","low","high","high","high","A",469,6.15060276844628,2.13219616204691
"2",7,2,"hearth","List1","hear",2,6,6,1,497,497,"related","hearth","hear","th",6,2,4,"opaque","consonant",183.476,2.265939873,4.64044,0.751312984,3.01597326,"hearth","low","high","high","high","A",497,6.20859002609663,2.01207243460765
"3",7,3,"youth","List1","you",3,6,6,1,504,504,"related","youth","you","th",5,2,3,"opaque","consonant",6334.67,3.801792548,63.4788,1.809416946,2.101114701,"youth","low","low","high","high","A",504,6.22257626807137,1.98412698412698
"4",7,4,"kindling","List2","kind",4,6,6,1,667,667,"related","kindling","kind","ling",8,4,4,"opaque","consonant",409.846,2.613679063,0.951884,0.290454004,8.998598807,"kindling","low","high","high","high","B",667,6.50279004591562,1.49925037481259
"5",7,5,"dumpling","List2","dump",5,6,6,1,502,502,"related","dumpling","dump","ling",8,4,4,"opaque","consonant",7.67457,0.938247956,0.356957,0.132566086,7.077586563,"dumpling","low","high","high","high","B",502,6.21860011969173,1.99203187250996
"6",7,6,"random","List2","ran",6,6,6,1,1141,1141,"related","random","ran","dom",6,3,3,"opaque","consonant",116.606,2.070429479,18.2643,1.284753233,1.61153864,"random","low","low","high","high","B",1141,7.03966034986208,0.876424189307625
"7",7,7,"dearth","List2","dear",7,6,6,1,687,687,"related","dearth","dear","th",6,2,4,"opaque","consonant",119.58,2.08127528,0.951884,0.290454004,7.16559332690214,"dearth","low","high","high","high","B",687,6.53233429222235,1.45560407569141
"8",7,8,"career","List1","car",8,6,6,1,827,827,"related","career","car","eer",6,3,3,"opaque","vowel",274.916,2.440776885,57.1725,1.764717728,1.383097617,"career","low","low","high","low","A",827,6.71780469502369,1.20918984280532
"9",7,9,"ratify","List1","rat",9,6,6,1,480,480,"related","ratify","rat","ify",6,3,3,"opaque","vowel",8.68594,0.986141774,0.713913,0.233988773,4.214483273,"ratify","low","high","high","high","A",480,6.17378610390194,2.08333333333333
"10",7,10,"factory","List1","fact",10,6,6,1,607,607,"related","factory","fact","ory",7,3,4,"opaque","vowel",448.635,2.65286011,39.2652,1.604929861,1.65294457584216,"factory","low","low","high","high","A",607,6.4085287910595,1.64744645799012
"11",7,11,"pillory","List1","pill",11,6,6,1,611,611,"related","pillory","pill","ory",7,3,4,"opaque","vowel",13.8023,1.170329202,0.416449,0.151200942,7.740224226,"pillory","low","high","high","high","A",611,6.4150969591716,1.6366612111293
"12",7,12,"hickory","List2","hick",12,6,6,1,555,555,"related","hickory","hick","ory",7,3,4,"opaque","vowel",1.24935,0.352057037,1.13036,0.328452999,1.071864276,"hickory","low","low","high","low","B",555,6.31896811374643,1.8018018018018
"13",7,14,"testify","List2","test",14,6,6,1,501,501,"related","testify","test","ify",7,3,4,"opaque","vowel",79.4228,1.905379189,5.23536,0.794861533,2.397120891,"testify","low","high","high","high","B",501,6.21660610108486,1.99600798403194
"14",7,15,"seedling","List1","seed",15,6,6,1,533,533,"related","seedling","seed","ling",8,4,4,"transparent","consonant",28.616,1.471526401,0.594928,0.202741082,7.258155965,"seedling","low","high","high","high","A",533,6.27852142416584,1.87617260787993
"15",7,16,"warmth","List1","warm",16,6,6,1,469,469,"related","warmth","warm","th",6,2,4,"transparent","consonant",94.177,1.978532012,24.987,1.414756146,1.398496848,"warmth","low","low","high","low","A",469,6.15060276844628,2.13219616204691
"16",7,17,"fourth","List1","four",17,6,6,1,439,439,"related","fourth","four","th",6,2,4,"transparent","consonant",319.714,2.506117918,45.274,1.665337042,1.504871298,"fourth","low","low","high","high","A",439,6.08449941307517,2.27790432801822
"17",7,18,"boyhood","List1","boy",18,6,6,1,430,430,"related","boyhood","boy","hood",7,4,3,"transparent","consonant",223.871,2.351933451,4.52145,0.742053144,3.16949462,"boyhood","low","high","high","high","A",430,6.06378520868761,2.32558139534884
"18",7,19,"eleventh","List1","eleven",19,6,6,1,489,489,"related","eleventh","eleven","th",8,2,6,"transparent","consonant",40.0386,1.613192537,4.69993,0.755869522,2.134220904,"eleventh","low","low","high","high","A",489,6.19236248947487,2.04498977505112
"19",7,20,"sixth","List1","six",20,6,6,1,581,581,"related","sixth","six","th",5,2,3,"transparent","consonant",203.227,2.310113158,16.063,1.232055391,1.875007547,"sixth","low","low","high","high","A",581,6.36475075685191,1.72117039586919
"20",7,21,"duckling","List1","duck",21,6,6,1,741,741,"related","duckling","duck","ling",8,4,4,"transparent","consonant",9.8758,1.036461213,0.297464,0.113095317,9.164492672,"duckling","low","high","high","high","A",741,6.60800062529609,1.34952766531714
"21",7,22,"stardom","List1","star",22,6,6,1,504,504,"related","stardom","star","dom",7,3,4,"transparent","consonant",54.6738,1.745650865,1.13036,0.328452999,5.314766085,"stardom","low","high","high","high","A",504,6.22257626807137,1.98412698412698
"22",7,23,"manhood","List1","man",23,6,6,1,436,436,"related","manhood","man","hood",7,4,3,"transparent","consonant",1024.11,3.01077047,6.06826,0.849312516,3.5449500740138,"manhood","low","high","high","high","A",436,6.07764224334903,2.29357798165138
"23",7,24,"boredom","List2","bore",24,6,6,1,547,547,"related","boredom","bore","dom",7,3,4,"transparent","consonant",28.497,1.469777848,15.2301,1.210321196,1.214370079,"boredom","low","low","high","low","B",547,6.30444880242198,1.82815356489945
"24",7,25,"tenth","List2","ten",25,6,6,1,456,456,"related","tenth","ten","th",5,2,3,"transparent","consonant",219.647,2.343698027,10.5302,1.061836841,2.207211065,"tenth","low","low","high","high","B",456,6.12249280951439,2.19298245614035
"25",7,26,"freedom","List2","free",26,6,6,1,563,563,"related","freedom","free","dom",7,3,4,"transparent","consonant",209.652,2.323565587,101.673,2.011456252,1.155165857,"freedom","low","low","high","low","B",563,6.33327962813969,1.77619893428064
"26",7,27,"kingdom","List2","king",27,6,6,1,474,474,"related","kingdom","king","dom",7,3,4,"transparent","consonant",91.7378,1.967256789,28.973,1.476730214,1.332170744,"kingdom","low","low","high","low","B",474,6.16120732169508,2.10970464135021
"27",7,28,"sapling","List2","sap",28,6,6,1,605,605,"related","sapling","sap","ling",7,4,3,"transparent","consonant",2.79616,0.579344509,0.713913,0.233988773,2.475950017,"sapling","low","high","high","high","B",605,6.40522845803084,1.65289256198347
"28",7,29,"earthling","List2","earth",29,6,6,1,512,512,"related","earthling","earth","ling",9,4,5,"transparent","consonant",161.999,2.21218494,0.237971,0.092710471,23.861219690479,"earthling","low","high","high","high","B",512,6.23832462503951,1.953125
"29",7,31,"serfdom","List2","serf",31,6,6,1,592,592,"related","serfdom","serf","dom",7,3,4,"transparent","consonant",0.356957,0.132566086,0.237971,0.092710471,1.429893335,"serfdom","low","low","high","low","B",592,6.38350663488401,1.68918918918919
"30",7,32,"health","List2","heal",32,6,6,1,666,666,"related","health","heal","th",6,2,4,"transparent","consonant",4.75942,0.76037875,130.587,2.119212986,0.35880242083473,"health","low","low","low","low","B",666,6.50128967054039,1.5015015015015
"31",7,33,"cashier","List1","cash",33,6,6,1,497,497,"related","cashier","cash","ier",7,3,4,"transparent","vowel",54.3169,1.742857834,2.20123,0.505316878,3.449039418,"cashier","low","high","high","high","A",497,6.20859002609663,2.01207243460765
"32",7,34,"solidify","List1","solid",34,6,6,1,533,533,"related","solidify","solid","ify",8,3,5,"transparent","vowel",46.5233,1.67690659,0.475942,0.169069291,9.91845751622358,"solidify","low","high","high","high","A",533,6.27852142416584,1.87617260787993
"33",7,35,"fortify","List1","fort",35,6,6,1,696,696,"related","fortify","fort","ify",7,3,4,"transparent","vowel",23.7971,1.394400893,1.18986,0.340416351,4.09616308,"fortify","low","high","high","high","A",696,6.54534966033442,1.4367816091954
"34",7,36,"profiteer","List1","profit",36,6,6,1,886,886,"related","profiteer","profit","eer",9,3,6,"transparent","vowel",36.945,1.579154557,0.118986,0.048824653,32.343384492,"profiteer","low","high","high","high","A",886,6.78671695060508,1.12866817155756
"35",7,38,"armory","List1","arm",38,6,6,1,654,654,"related","armory","arm","ory",6,3,3,"transparent","vowel",111.132,2.049729568,0,0,2049729568,"armory","low","high","high","high","A",654,6.4831073514572,1.52905198776758
"36",7,39,"acidify","List1","acid",39,6,6,1,577,577,"related","acidify","acid","ify",7,3,4,"transparent","vowel",21.8933,1.359708399,0,0,1359708399,"acidify","low","high","high","high","A",577,6.3578422665081,1.73310225303293
"37",7,40,"frontier","List1","front",40,6,6,1,663,663,"related","frontier","front","ier",8,3,5,"transparent","vowel",263.077,2.421730578,13.0884,1.148861674,2.107939216,"frontier","low","low","high","high","A",663,6.49677499018586,1.50829562594268
"38",7,41,"humidify","List1","humid",41,6,6,1,400,400,"related","humidify","humid","ify",8,3,5,"transparent","vowel",3.03413,0.605749889,0.237971,0.092710471,6.533780661,"humidify","low","high","high","high","A",400,5.99146454710798,2.5
"39",7,42,"classify","List2","class",42,6,6,1,478,478,"related","classify","class","ify",8,3,5,"transparent","vowel",203.287,2.310240731,1.6658,0.425827564,5.425296343,"classify","low","high","high","high","B",478,6.16961073249146,2.09205020920502
"40",7,43,"hotelier","List2","hotel",43,6,6,1,604,604,"related","hotelier","hotel","ier",8,3,5,"transparent","vowel",125.589,2.102395969,0.178478,0.071321479,29.47773895,"hotelier","low","high","high","high","B",604,6.40357419793482,1.65562913907285
"41",7,44,"marketeer","List2","market",44,6,6,1,541,541,"related","marketeer","market","eer",9,3,6,"transparent","vowel",132.55,2.125643892,0.178478,0.071321479,29.803698577,"marketeer","low","high","high","high","B",541,6.29341927884648,1.84842883548983
"42",7,45,"justify","List2","just",45,6,6,1,506,506,"related","justify","just","ify",7,3,4,"transparent","vowel",1236.44,3.09252415,16.42,1.241048151,2.49186475562312,"justify","low","high","high","high","B",506,6.22653666928747,1.97628458498024
"43",7,46,"courtier","List2","court",46,6,6,1,538,538,"related","courtier","court","ier",8,3,5,"transparent","vowel",128.088,2.110885872,1.6063,0.416024404,5.073947217,"courtier","low","high","high","high","B",538,6.28785856016178,1.85873605947955
"44",7,47,"nullify","List2","null",47,6,6,1,567,567,"related","nullify","null","ify",7,3,4,"transparent","vowel",0.356957,0.132566086,0.713913,0.233988773,0.566548915,"nullify","low","low","low","low","B",567,6.34035930372775,1.7636684303351
"45",7,48,"racketeer","List2","racket",48,6,6,1,528,528,"related","racketeer","racket","eer",9,3,6,"transparent","vowel",11.7201,1.104490526,0.0594928,0.02509801,44.0070938689126,"racketeer","low","high","high","high","B",528,6.26909628370626,1.89393939393939
"46",7,49,"musketeer","List2","musket",49,6,6,1,479,479,"related","musketeer","musket","eer",9,3,6,"transparent","vowel",0.65442,0.218645772,0,0,218645772,"musketeer","low","high","high","high","B",479,6.17170059741091,2.08768267223382
"47",7,50,"clothier","List2","cloth",50,6,6,1,717,717,"related","clothier","cloth","ier",8,3,5,"transparent","vowel",47.2967,1.683917457,0,0,1683917457,"clothier","low","high","high","high","B",717,6.57507584059962,1.39470013947001
"48",7,51,"witness","List1","wit",51,6,6,1,572,572,"related","witness","wit","ness",7,4,3,"opaque","consonant",11.0062,1.079405574,23.7376,1.393357563,0.774679524,"witness","high","low","low","low","A",572,6.3491389913798,1.74825174825175
"49",7,53,"listen","List1","list",53,6,6,1,743,743,"related","listen","list","en",6,2,4,"opaque","vowel",74.6634,1.878885853,75.4368,1.883302497,0.99765484,"listen","high","low","low","low","A",743,6.61069604471776,1.34589502018843
"50",7,54,"pastor","List1","past",54,6,6,1,549,549,"related","pastor","past","or",6,2,4,"opaque","vowel",273.786,2.438994602,3.62906,0.66549281,3.66494507782143,"pastor","high","high","high","high","A",549,6.30809844150953,1.82149362477231
"51",7,55,"banish","List1","ban",55,6,6,1,513,513,"related","banish","ban","ish",6,3,3,"opaque","vowel",13.6833,1.166823672,2.14174,0.497170241,2.346929831,"banish","high","low","high","high","A",513,6.24027584517077,1.94931773879142
"52",7,56,"heathen","List1","heath",56,6,6,1,475,475,"related","heathen","heath","en",7,2,5,"opaque","vowel",13.6238,1.165060239,2.55819,0.551229135,2.113567957,"heathen","high","low","high","high","A",475,6.16331480403464,2.10526315789474
"53",7,57,"mister","List1","mist",57,6,6,1,471,471,"related","mister","mist","er",6,2,4,"opaque","vowel",13.8023,1.170329202,7.02015,0.904182491,1.294350656,"mister","high","low","high","low","A",471,6.15485809401642,2.12314225053079
"54",7,58,"raptor","List1","rapt",58,6,6,1,663,663,"related","raptor","rapt","or",6,2,4,"opaque","vowel",2.14174,0.497170241,0,0,497170241,"raptor","high","high","high","high","A",663,6.49677499018586,1.50829562594268
"55",7,59,"flower","List2","flow",59,6,6,1,554,554,"related","flower","flow","er",6,2,4,"opaque","vowel",41.9424,1.632886313,27.9616,1.461822551,1.11702088,"flower","high","low","high","low","B",554,6.31716468674728,1.80505415162455
"56",7,60,"traitor","List2","trait",60,6,6,1,528,528,"related","traitor","trait","or",7,2,5,"opaque","vowel",3.2721,0.63064141,6.18725,0.856562752,0.736246594649674,"traitor","high","low","low","low","B",528,6.26909628370626,1.89393939393939
"57",7,61,"limber","List2","limb",61,6,6,1,629,629,"related","limber","limb","er",6,2,4,"opaque","vowel",7.91254,0.950001492,0.773406,0.248808173,3.818208529,"limber","high","high","high","high","B",629,6.44413125670044,1.58982511923688
"58",7,63,"pollen","List2","poll",63,6,6,1,522,522,"related","pollen","poll","en",6,2,4,"opaque","vowel",8.38848,0.972595285,5.88978,0.838205355,1.160330554,"pollen","high","low","high","low","B",522,6.25766758788264,1.91570881226054
"59",7,64,"vanish","List2","van",64,6,6,1,483,483,"related","vanish","van","ish",6,3,3,"opaque","vowel",56.3396,1.758454659,6.18725,0.856562752,2.052919827,"vanish","high","low","high","high","B",483,6.18001665365257,2.0703933747412
"60",7,65,"helpless","List1","help",65,6,6,1,544,544,"related","helpless","help","less",8,4,4,"transparent","consonant",375.221,2.575443033,19.3351,1.308246312,1.968622428,"helpless","high","low","high","high","A",544,6.29894924685594,1.83823529411765
"61",7,66,"chiefly","List1","chief",66,6,6,1,509,509,"related","chiefly","chief","ly",7,2,5,"transparent","consonant",105.54,2.027512692,11.3036,1.090032203,1.860048432,"chiefly","high","low","high","high","A",509,6.23244801655052,1.96463654223969
"62",7,67,"strongly","List1","strong",67,6,6,1,428,428,"related","strongly","strong","ly",8,2,6,"transparent","consonant",167.948,2.227753055,42.3588,1.637077254,1.360811195,"strongly","high","low","high","low","A",428,6.0591231955818,2.33644859813084
"63",7,68,"deafness","List1","deaf",68,6,6,1,480,480,"related","deafness","deaf","ness",8,4,4,"transparent","consonant",9.51884,1.021967849,2.08225,0.488867861,2.090478693,"deafness","high","low","high","high","A",480,6.17378610390194,2.08333333333333
"64",7,69,"deadly","List1","dead",69,6,6,1,453,453,"related","deadly","dead","ly",6,2,4,"transparent","consonant",190.079,2.28121296,13.6833,1.166823672,1.95506228814746,"deadly","high","low","high","high","A",453,6.11589212548303,2.2075055187638
"65",7,70,"sickness","List1","sick",70,6,6,1,471,471,"related","sickness","sick","ness",8,4,4,"transparent","consonant",70.6179,1.855021582,16.4795,1.242529006,1.492940263,"sickness","high","low","high","low","A",471,6.15485809401642,2.12314225053079
"66",7,71,"worthless","List1","worth",71,6,6,1,518,518,"related","worthless","worth","less",9,4,5,"transparent","consonant",99.1149,2.000498718,5.17587,0.790698146,2.530040984,"worthless","high","high","high","high","A",518,6.24997524225948,1.93050193050193
"67",7,72,"thankless","List1","thank",72,6,6,1,451,451,"related","thankless","thank","less",9,4,5,"transparent","consonant",69.4875,1.848112108,0.65442,0.218645772,8.452539844,"thankless","high","high","high","high","A",451,6.11146733950268,2.21729490022173
"68",7,73,"toothless","List1","tooth",73,6,6,1,498,498,"related","toothless","tooth","less",9,NA,5,"transparent","consonant",13.5643,1.163289616,1.84428,0.453972347,2.562468003,"toothless","high","high","high","high","A",498,6.21060007702465,2.00803212851406
"69",7,74,"weakness","List2","weak",74,6,6,1,461,461,"related","weakness","weak","ness",8,4,4,"transparent","consonant",47.9512,1.689763343,21.8338,1.358578193,1.243773344,"weakness","high","low","high","low","B",461,6.13339804299665,2.16919739696312
"70",7,75,"greatly","List2","great",75,6,6,1,527,527,"related","greatly","great","ly",7,2,5,"transparent","consonant",639.726,2.806672348,40.3361,1.616329499,1.736448136,"greatly","high","low","high","high","B",527,6.26720054854136,1.89753320683112
"71",7,76,"illness","List2","ill",76,6,6,1,617,617,"related","illness","ill","ness",7,4,3,"transparent","consonant",56.5181,1.759804532,35.3982,1.561079907,1.127299457,"illness","high","low","high","low","B",617,6.42486902390539,1.62074554294976
"72",7,77,"calmness","List2","calm",77,6,6,1,487,487,"related","calmness","calm","ness",8,4,4,"transparent","consonant",41.288,1.626217146,1.01138,0.303494127,5.358315025,"calmness","high","high","high","high","B",487,6.18826412308259,2.05338809034908
"73",7,78,"deathlike","List2","death",78,6,6,1,742,742,"related","deathlike","death","like",9,4,5,"transparent","consonant",233.152,2.369497872,0,0,2369497872,"deathlike","high","high","high","high","B",742,6.60934924316738,1.34770889487871
"74",7,80,"highly","List2","high",80,6,6,1,591,591,"related","highly","high","ly",6,2,4,"transparent","consonant",369.866,2.56921702,93.8796,1.977172845,1.2994397658241,"highly","high","low","high","low","B",591,6.3818160174061,1.69204737732657
"75",7,81,"stainless","List2","stain",81,6,6,1,534,534,"related","stainless","stain","less",9,4,5,"transparent","consonant",7.3771,0.9230937,2.37971,0.528879437,1.7453764197957,"stainless","high","low","high","high","B",534,6.2803958389602,1.87265917602996
"76",7,82,"warlike","List2","war",82,6,6,1,488,488,"related","warlike","war","like",7,4,3,"transparent","consonant",340.12,2.532907183,1.6063,0.416024404,6.088362011,"warlike","high","high","high","high","B",488,6.19031540585315,2.04918032786885
"77",7,83,"tractor","List1","tract",83,6,6,1,872,872,"related","tractor","tract","or",7,2,5,"transparent","vowel",3.45058,0.648416612,7.25812,0.916881189,0.707198074,"tractor","high","low","low","low","A",872,6.77078942390898,1.14678899082569
"78",7,85,"selfish","List1","self",85,6,6,1,495,495,"related","selfish","self","ish",7,3,4,"transparent","vowel",38.9083,1.601063228,12.196,1.120442307,1.428956419,"selfish","high","low","high","low","A",495,6.20455776256869,2.02020202020202
"79",7,86,"freshen","List1","fresh",86,6,6,1,459,459,"related","freshen","fresh","en",7,2,5,"transparent","vowel",73.8305,1.874078647,0.475942,0.169069291,11.084677914,"freshen","high","high","high","high","A",459,6.12905021006055,2.17864923747277
"80",7,88,"prayer","List1","pray",88,6,6,1,491,491,"related","prayer","pray","er",6,2,4,"transparent","vowel",15.1707,1.20872882,20.5845,1.334141993,0.90599713181654,"prayer","high","low","low","low","A",491,6.19644412779452,2.03665987780041
"81",7,89,"professor","List1","profess",89,6,6,1,796,796,"related","professor","profess","or",9,2,7,"transparent","vowel",0.951884,0.290454004,74.9609,1.880590102,0.154448332,"professor","high","low","low","low","A",796,6.67959918584438,1.25628140703518
"82",7,90,"soften","List1","soft",90,6,6,1,510,510,"related","soften","soft","en",6,2,4,"transparent","vowel",81.0886,1.914282849,4.04551,0.702905071,2.723387446,"soften","high","high","high","high","A",510,6.23441072571837,1.96078431372549
"83",7,91,"fasten","List1","fast",91,6,6,1,579,579,"related","fasten","fast","en",6,2,4,"transparent","vowel",102.982,2.016958166,2.85565,0.586097604,3.441334939,"fasten","high","high","high","high","A",579,6.361302477573,1.72711571675302
"84",7,93,"greenish","List2","green",93,6,6,1,474,474,"related","greenish","green","ish",8,3,5,"transparent","vowel",154.027,2.190407343,2.73667,0.572484745,3.826140973,"greenish","high","high","high","high","B",474,6.16120732169508,2.10970464135021
"85",7,94,"bookish","List2","book",94,6,6,1,485,485,"related","bookish","book","ish",7,3,4,"transparent","vowel",252.249,2.403547739,1.6063,0.416024404,5.777420051,"bookish","high","high","high","high","B",485,6.18414889093748,2.06185567010309
"86",7,95,"drunken","List2","drunk",95,6,6,1,538,538,"related","drunken","drunk","en",7,2,5,"transparent","vowel",38.4918,1.596506929,8.21,0.96425963,1.65568160034276,"drunken","high","low","high","high","B",538,6.28785856016178,1.85873605947955
"87",7,96,"foolish","List2","fool",96,6,6,1,472,472,"related","foolish","fool","ish",7,3,4,"transparent","vowel",37.4804,1.585239578,20.525,1.33294316,1.18927770094167,"foolish","high","low","high","low","B",472,6.15697898558556,2.11864406779661
"88",7,97,"freakish","List2","freak",97,6,6,1,480,480,"related","freakish","freak","ish",8,3,5,"transparent","vowel",5.35435,0.803071132,0.713913,0.233988773,3.432092567,"freakish","high","high","high","high","B",480,6.17378610390194,2.08333333333333
"89",7,98,"flaxen","List2","flax",98,6,6,1,493,493,"related","flaxen","flax","en",6,2,4,"transparent","vowel",2.20123,0.505316878,0.118986,0.048824653,10.349625376,"flaxen","high","high","high","high","B",493,6.20050917404269,2.02839756592292
"90",7,99,"hunter","List2","hunt",99,6,6,1,525,525,"related","hunter","hunt","er",6,2,4,"transparent","vowel",22.9642,1.379562935,11.8391,1.108534581,1.244492465,"hunter","high","low","high","low","B",525,6.26339826259162,1.9047619047619
"91",7,100,"sailor","List2","sail",100,6,6,1,476,476,"related","sailor","sail","or",6,2,4,"transparent","vowel",8.21,0.96425963,5.88978,0.838205355,1.15038590853385,"sailor","high","low","high","low","B",476,6.16541785423142,2.10084033613445
"92",7,101,"kindling","List2","bread",1,6,6,1,470,470,"unrelated","breadth","bread","th",7,2,5,"opaque","consonant",76.9836,1.89200328,4.40246,0.73259156,2.58261681,"breadth","low","high","high","high","A",470,6.1527326947041,2.12765957446809
"93",7,102,"dumpling","List2","hear",2,6,6,1,499,499,"unrelated","hearth","hear","th",6,2,4,"opaque","consonant",183.476,2.265939873,4.64044,0.751312984,3.01597326,"hearth","low","high","high","high","A",499,6.21260609575152,2.00400801603206
"94",7,103,"random","List2","you",3,6,6,1,419,419,"unrelated","youth","you","th",5,2,3,"opaque","consonant",6334.67,3.801792548,63.4788,1.809416946,2.101114701,"youth","low","low","high","high","A",419,6.03787091992214,2.38663484486874
"95",7,104,"breadth","List1","kind",4,6,6,1,591,591,"unrelated","kindling","kind","ling",8,4,4,"opaque","consonant",409.846,2.613679063,0.951884,0.290454004,8.998598807,"kindling","low","high","high","high","B",591,6.3818160174061,1.69204737732657
"96",7,105,"hearth","List1","dump",5,6,6,1,390,390,"unrelated","dumpling","dump","ling",8,4,4,"opaque","consonant",7.67457,0.938247956,0.356957,0.132566086,7.077586563,"dumpling","low","high","high","high","B",390,5.96614673912369,2.56410256410256
"97",7,106,"youth","List1","ran",6,6,6,1,561,561,"unrelated","random","ran","dom",6,3,3,"opaque","consonant",116.606,2.070429479,18.2643,1.284753233,1.61153864,"random","low","low","high","high","B",561,6.3297209055227,1.7825311942959
"98",7,107,"pillory","List1","dear",7,6,6,1,637,637,"unrelated","dearth","dear","th",6,2,4,"opaque","consonant",119.58,2.08127528,0.951884,0.290454004,7.16559332690214,"dearth","low","high","high","high","B",637,6.45676965557216,1.56985871271586
"99",7,108,"hickory","List2","car",8,6,6,1,491,491,"unrelated","career","car","eer",6,3,3,"opaque","vowel",274.916,2.440776885,57.1725,1.764717728,1.383097617,"career","low","low","high","low","A",491,6.19644412779452,2.03665987780041
"100",7,109,"auditory","List2","rat",9,6,6,1,596,596,"unrelated","ratify","rat","ify",6,3,3,"opaque","vowel",8.68594,0.986141774,0.713913,0.233988773,4.214483273,"ratify","low","high","high","high","A",596,6.39024066706535,1.67785234899329
"101",7,110,"testify","List2","fact",10,6,6,1,478,478,"unrelated","factory","fact","ory",7,3,4,"opaque","vowel",448.635,2.65286011,39.2652,1.604929861,1.65294457584216,"factory","low","low","high","high","A",478,6.16961073249146,2.09205020920502
"102",7,111,"dearth","List2","pill",11,6,6,1,455,455,"unrelated","pillory","pill","ory",7,3,4,"opaque","vowel",13.8023,1.170329202,0.416449,0.151200942,7.740224226,"pillory","low","high","high","high","A",455,6.12029741895095,2.1978021978022
"103",7,112,"career","List1","hick",12,6,6,1,559,559,"unrelated","hickory","hick","ory",7,3,4,"opaque","vowel",1.24935,0.352057037,1.13036,0.328452999,1.071864276,"hickory","low","low","high","low","B",559,6.3261494731551,1.78890876565295
"104",7,114,"factory","List1","test",14,6,6,1,630,630,"unrelated","testify","test","ify",7,3,4,"opaque","vowel",79.4228,1.905379189,5.23536,0.794861533,2.397120891,"testify","low","high","high","high","B",630,6.44571981938558,1.58730158730159
"105",7,115,"boredom","List2","seed",15,6,6,1,475,475,"unrelated","seedling","seed","ling",8,4,4,"transparent","consonant",28.616,1.471526401,0.594928,0.202741082,7.258155965,"seedling","low","high","high","high","A",475,6.16331480403464,2.10526315789474
"106",7,116,"tenth","List2","warm",16,6,6,1,473,473,"unrelated","warmth","warm","th",6,2,4,"transparent","consonant",94.177,1.978532012,24.987,1.414756146,1.398496848,"warmth","low","low","high","low","A",473,6.15909538849193,2.11416490486258
"107",7,118,"kingdom","List2","boy",18,6,6,1,419,419,"unrelated","boyhood","boy","hood",7,4,3,"transparent","consonant",223.871,2.351933451,4.52145,0.742053144,3.16949462,"boyhood","low","high","high","high","A",419,6.03787091992214,2.38663484486874
"108",7,120,"earthling","List2","six",20,6,6,1,688,688,"unrelated","sixth","six","th",5,2,3,"transparent","consonant",203.227,2.310113158,16.063,1.232055391,1.875007547,"sixth","low","low","high","high","A",688,6.53378883793334,1.45348837209302
"109",7,121,"growth","List2","duck",21,6,6,1,484,484,"unrelated","duckling","duck","ling",8,4,4,"transparent","consonant",9.8758,1.036461213,0.297464,0.113095317,9.164492672,"duckling","low","high","high","high","A",484,6.18208490671663,2.06611570247934
"110",7,122,"serfdom","List2","star",22,6,6,1,468,468,"unrelated","stardom","star","dom",7,3,4,"transparent","consonant",54.6738,1.745650865,1.13036,0.328452999,5.314766085,"stardom","low","high","high","high","A",468,6.14846829591765,2.13675213675214
"111",7,123,"health","List2","man",23,6,6,1,522,522,"unrelated","manhood","man","hood",7,4,3,"transparent","consonant",1024.11,3.01077047,6.06826,0.849312516,3.5449500740138,"manhood","low","high","high","high","A",522,6.25766758788264,1.91570881226054
"112",7,124,"seedling","List1","bore",24,6,6,1,932,932,"unrelated","boredom","bore","dom",7,3,4,"transparent","consonant",28.497,1.469777848,15.2301,1.210321196,1.214370079,"boredom","low","low","high","low","B",932,6.83733281468559,1.07296137339056
"113",7,125,"warmth","List1","ten",25,6,6,1,674,674,"unrelated","tenth","ten","th",5,2,3,"transparent","consonant",219.647,2.343698027,10.5302,1.061836841,2.207211065,"tenth","low","low","high","high","B",674,6.51323011091231,1.48367952522255
"114",7,126,"fourth","List1","free",26,6,6,1,466,466,"unrelated","freedom","free","dom",7,3,4,"transparent","consonant",209.652,2.323565587,101.673,2.011456252,1.155165857,"freedom","low","low","high","low","B",466,6.14418563412565,2.14592274678112
"115",7,127,"boyhood","List1","king",27,6,6,1,501,501,"unrelated","kingdom","king","dom",7,3,4,"transparent","consonant",91.7378,1.967256789,28.973,1.476730214,1.332170744,"kingdom","low","low","high","low","B",501,6.21660610108486,1.99600798403194
"116",7,128,"eleventh","List1","sap",28,6,6,1,564,564,"unrelated","sapling","sap","ling",7,4,3,"transparent","consonant",2.79616,0.579344509,0.713913,0.233988773,2.475950017,"sapling","low","high","high","high","B",564,6.33505425149806,1.77304964539007
"117",7,129,"sixth","List1","earth",29,6,6,1,495,495,"unrelated","earthling","earth","ling",9,4,5,"transparent","consonant",161.999,2.21218494,0.237971,0.092710471,23.861219690479,"earthling","low","high","high","high","B",495,6.20455776256869,2.02020202020202
"118",7,130,"duckling","List1","grow",30,6,6,1,494,494,"unrelated","growth","grow","th",6,2,4,"transparent","consonant",95.4264,1.984195953,121.841,2.089343343,0.949674432,"growth","low","low","low","low","B",494,6.20253551718792,2.02429149797571
"119",7,132,"manhood","List1","heal",32,6,6,1,517,517,"unrelated","health","heal","th",6,2,4,"transparent","consonant",4.75942,0.76037875,130.587,2.119212986,0.35880242083473,"health","low","low","low","low","B",517,6.24804287450843,1.93423597678917
"120",7,133,"classify","List2","cash",33,6,6,1,454,454,"unrelated","cashier","cash","ier",7,3,4,"transparent","vowel",54.3169,1.742857834,2.20123,0.505316878,3.449039418,"cashier","low","high","high","high","A",454,6.11809719804135,2.20264317180617
"121",7,134,"hotelier","List2","solid",34,6,6,1,512,512,"unrelated","solidify","solid","ify",8,3,5,"transparent","vowel",46.5233,1.67690659,0.475942,0.169069291,9.91845751622358,"solidify","low","high","high","high","A",512,6.23832462503951,1.953125
"122",7,135,"marketeer","List2","fort",35,6,6,1,534,534,"unrelated","fortify","fort","ify",7,3,4,"transparent","vowel",23.7971,1.394400893,1.18986,0.340416351,4.09616308,"fortify","low","high","high","high","A",534,6.2803958389602,1.87265917602996
"123",7,137,"courtier","List2","direct",37,6,6,1,653,653,"unrelated","directory","direct","ory",9,3,6,"transparent","vowel",94.2365,1.978803426,3.98601,0.697753145,2.835964893,"directory","low","high","high","high","A",653,6.48157712927643,1.53139356814701
"124",7,138,"nullify","List2","arm",38,6,6,1,505,505,"unrelated","armory","arm","ory",6,3,3,"transparent","vowel",111.132,2.049729568,0,0,2049729568,"armory","low","high","high","high","A",505,6.22455842927536,1.98019801980198
"125",7,139,"racketeer","List2","acid",39,6,6,1,592,592,"unrelated","acidify","acid","ify",7,3,4,"transparent","vowel",21.8933,1.359708399,0,0,1359708399,"acidify","low","high","high","high","A",592,6.38350663488401,1.68918918918919
"126",7,140,"musketeer","List2","front",40,6,6,1,531,531,"unrelated","frontier","front","ier",8,3,5,"transparent","vowel",263.077,2.421730578,13.0884,1.148861674,2.107939216,"frontier","low","low","high","high","A",531,6.27476202124194,1.88323917137476
"127",7,141,"clothier","List2","humid",41,6,6,1,614,614,"unrelated","humidify","humid","ify",8,3,5,"transparent","vowel",3.03413,0.605749889,0.237971,0.092710471,6.533780661,"humidify","low","high","high","high","A",614,6.41999492814714,1.62866449511401
"128",7,142,"cashier","List1","class",42,6,6,1,494,494,"unrelated","classify","class","ify",8,3,5,"transparent","vowel",203.287,2.310240731,1.6658,0.425827564,5.425296343,"classify","low","high","high","high","B",494,6.20253551718792,2.02429149797571
"129",7,143,"solidify","List1","hotel",43,6,6,1,486,486,"unrelated","hotelier","hotel","ier",8,3,5,"transparent","vowel",125.589,2.102395969,0.178478,0.071321479,29.47773895,"hotelier","low","high","high","high","B",486,6.18620862390049,2.05761316872428
"130",7,144,"fortify","List1","market",44,6,6,1,459,459,"unrelated","marketeer","market","eer",9,3,6,"transparent","vowel",132.55,2.125643892,0.178478,0.071321479,29.803698577,"marketeer","low","high","high","high","B",459,6.12905021006055,2.17864923747277
"131",7,145,"profiteer","List1","just",45,6,6,1,463,463,"unrelated","justify","just","ify",7,3,4,"transparent","vowel",1236.44,3.09252415,16.42,1.241048151,2.49186475562312,"justify","low","high","high","high","B",463,6.13772705408623,2.15982721382289
"132",7,146,"directory","List1","court",46,6,6,1,580,580,"unrelated","courtier","court","ier",8,3,5,"transparent","vowel",128.088,2.110885872,1.6063,0.416024404,5.073947217,"courtier","low","high","high","high","B",580,6.36302810354046,1.72413793103448
"133",7,147,"armory","List1","null",47,6,6,1,640,640,"unrelated","nullify","null","ify",7,3,4,"transparent","vowel",0.356957,0.132566086,0.713913,0.233988773,0.566548915,"nullify","low","low","low","low","B",640,6.46146817635372,1.5625
"134",7,148,"acidify","List1","racket",48,6,6,1,620,620,"unrelated","racketeer","racket","eer",9,3,6,"transparent","vowel",11.7201,1.104490526,0.0594928,0.02509801,44.0070938689126,"racketeer","low","high","high","high","B",620,6.42971947803914,1.61290322580645
"135",7,149,"frontier","List1","musket",49,6,6,1,530,530,"unrelated","musketeer","musket","eer",9,3,6,"transparent","vowel",0.65442,0.218645772,0,0,218645772,"musketeer","low","high","high","high","B",530,6.27287700654617,1.88679245283019
"136",7,150,"humidify","List1","cloth",50,6,6,1,558,558,"unrelated","clothier","cloth","ier",8,3,5,"transparent","vowel",47.2967,1.683917457,0,0,1683917457,"clothier","low","high","high","high","B",558,6.32435896238131,1.7921146953405
"137",7,151,"imply","List2","wit",51,6,6,1,564,564,"unrelated","witness","wit","ness",7,4,3,"opaque","consonant",11.0062,1.079405574,23.7376,1.393357563,0.774679524,"witness","high","low","low","low","A",564,6.33505425149806,1.77304964539007
"138",7,153,"flower","List2","list",53,6,6,1,654,654,"unrelated","listen","list","en",6,2,4,"opaque","vowel",74.6634,1.878885853,75.4368,1.883302497,0.99765484,"listen","high","low","low","low","A",654,6.4831073514572,1.52905198776758
"139",7,154,"traitor","List2","past",54,6,6,1,488,488,"unrelated","pastor","past","or",6,2,4,"opaque","vowel",273.786,2.438994602,3.62906,0.66549281,3.66494507782143,"pastor","high","high","high","high","A",488,6.19031540585315,2.04918032786885
"140",7,156,"hunger","List2","heath",56,6,6,1,432,432,"unrelated","heathen","heath","en",7,2,5,"opaque","vowel",13.6238,1.165060239,2.55819,0.551229135,2.113567957,"heathen","high","low","high","high","A",432,6.06842558824411,2.31481481481481
"141",7,157,"pollen","List2","mist",57,6,6,1,522,522,"unrelated","mister","mist","er",6,2,4,"opaque","vowel",13.8023,1.170329202,7.02015,0.904182491,1.294350656,"mister","high","low","high","low","A",522,6.25766758788264,1.91570881226054
"142",7,158,"vanish","List2","rapt",58,6,6,1,606,606,"unrelated","raptor","rapt","or",6,2,4,"opaque","vowel",2.14174,0.497170241,0,0,497170241,"raptor","high","high","high","high","A",606,6.40687998606931,1.65016501650165
"143",7,160,"pastor","List1","trait",60,6,6,1,620,620,"unrelated","traitor","trait","or",7,2,5,"opaque","vowel",3.2721,0.63064141,6.18725,0.856562752,0.736246594649674,"traitor","high","low","low","low","B",620,6.42971947803914,1.61290322580645
"144",7,161,"banish","List1","limb",61,6,6,1,609,609,"unrelated","limber","limb","er",6,2,4,"opaque","vowel",7.91254,0.950001492,0.773406,0.248808173,3.818208529,"limber","high","high","high","high","B",609,6.4118182677099,1.64203612479475
"145",7,162,"heathen","List1","hung",62,6,6,1,511,511,"unrelated","hunger","hung","er",6,2,4,"opaque","vowel",58.6004,1.775249174,25.2249,1.418713841,1.251308841,"hunger","high","low","high","low","B",511,6.2363695902037,1.95694716242661
"146",7,163,"mister","List1","poll",63,6,6,1,575,575,"unrelated","pollen","poll","en",6,2,4,"opaque","vowel",8.38848,0.972595285,5.88978,0.838205355,1.160330554,"pollen","high","low","high","low","B",575,6.35437004079735,1.73913043478261
"147",7,164,"raptor","List1","van",64,6,6,1,478,478,"unrelated","vanish","van","ish",6,3,3,"opaque","vowel",56.3396,1.758454659,6.18725,0.856562752,2.052919827,"vanish","high","low","high","high","B",478,6.16961073249146,2.09205020920502
"148",7,165,"weakness","List2","help",65,6,6,1,671,671,"unrelated","helpless","help","less",8,4,4,"transparent","consonant",375.221,2.575443033,19.3351,1.308246312,1.968622428,"helpless","high","low","high","high","A",671,6.50876913697168,1.4903129657228
"149",7,166,"greatly","List2","chief",66,6,6,1,629,629,"unrelated","chiefly","chief","ly",7,2,5,"transparent","consonant",105.54,2.027512692,11.3036,1.090032203,1.860048432,"chiefly","high","low","high","high","A",629,6.44413125670044,1.58982511923688
"150",7,167,"illness","List2","strong",67,6,6,1,487,487,"unrelated","strongly","strong","ly",8,2,6,"transparent","consonant",167.948,2.227753055,42.3588,1.637077254,1.360811195,"strongly","high","low","high","low","A",487,6.18826412308259,2.05338809034908
"151",7,168,"calmness","List2","deaf",68,6,6,1,768,768,"unrelated","deafness","deaf","ness",8,4,4,"transparent","consonant",9.51884,1.021967849,2.08225,0.488867861,2.090478693,"deafness","high","low","high","high","A",768,6.64378973314767,1.30208333333333
"152",7,169,"deathlike","List2","dead",69,6,6,1,446,446,"unrelated","deadly","dead","ly",6,2,4,"transparent","consonant",190.079,2.28121296,13.6833,1.166823672,1.95506228814746,"deadly","high","low","high","high","A",446,6.10031895202006,2.24215246636771
"153",7,170,"waiflike","List2","sick",70,6,6,1,511,511,"unrelated","sickness","sick","ness",8,4,4,"transparent","consonant",70.6179,1.855021582,16.4795,1.242529006,1.492940263,"sickness","high","low","high","low","A",511,6.2363695902037,1.95694716242661
"154",7,172,"stainless","List2","thank",72,6,6,1,601,601,"unrelated","thankless","thank","less",9,4,5,"transparent","consonant",69.4875,1.848112108,0.65442,0.218645772,8.452539844,"thankless","high","high","high","high","A",601,6.39859493453521,1.66389351081531
"155",7,173,"warlike","List2","tooth",73,6,6,1,505,505,"unrelated","toothless","tooth","less",9,NA,5,"transparent","consonant",13.5643,1.163289616,1.84428,0.453972347,2.562468003,"toothless","high","high","high","high","A",505,6.22455842927536,1.98019801980198
"156",7,174,"helpless","List1","weak",74,6,6,1,561,561,"unrelated","weakness","weak","ness",8,4,4,"transparent","consonant",47.9512,1.689763343,21.8338,1.358578193,1.243773344,"weakness","high","low","high","low","B",561,6.3297209055227,1.7825311942959
"157",7,175,"chiefly","List1","great",75,6,6,1,369,369,"unrelated","greatly","great","ly",7,2,5,"transparent","consonant",639.726,2.806672348,40.3361,1.616329499,1.736448136,"greatly","high","low","high","high","B",369,5.91079664404053,2.710027100271
"158",7,176,"strongly","List1","ill",76,6,6,1,576,576,"unrelated","illness","ill","ness",7,4,3,"transparent","consonant",56.5181,1.759804532,35.3982,1.561079907,1.127299457,"illness","high","low","high","low","B",576,6.35610766069589,1.73611111111111
"159",7,177,"deafness","List1","calm",77,6,6,1,517,517,"unrelated","calmness","calm","ness",8,4,4,"transparent","consonant",41.288,1.626217146,1.01138,0.303494127,5.358315025,"calmness","high","high","high","high","B",517,6.24804287450843,1.93423597678917
"160",7,178,"deadly","List1","death",78,6,6,1,388,388,"unrelated","deathlike","death","like",9,4,5,"transparent","consonant",233.152,2.369497872,0,0,2369497872,"deathlike","high","high","high","high","B",388,5.96100533962327,2.57731958762887
"161",7,180,"worthless","List1","high",80,6,6,1,626,626,"unrelated","highly","high","ly",6,2,4,"transparent","consonant",369.866,2.56921702,93.8796,1.977172845,1.2994397658241,"highly","high","low","high","low","B",626,6.4393503711001,1.59744408945687
"162",7,181,"thankless","List1","stain",81,6,6,1,495,495,"unrelated","stainless","stain","less",9,4,5,"transparent","consonant",7.3771,0.9230937,2.37971,0.528879437,1.7453764197957,"stainless","high","low","high","high","B",495,6.20455776256869,2.02020202020202
"163",7,182,"toothless","List1","war",82,6,6,1,419,419,"unrelated","warlike","war","like",7,4,3,"transparent","consonant",340.12,2.532907183,1.6063,0.416024404,6.088362011,"warlike","high","high","high","high","B",419,6.03787091992214,2.38663484486874
"164",7,184,"greenish","List2","sculpt",84,6,6,1,611,611,"unrelated","sculptor","sculpt","or",8,2,6,"transparent","vowel",0,0,3.62906,0.66549281,0,"sculptor","high","low","low","low","A",611,6.4150969591716,1.6366612111293
"165",7,185,"bookish","List2","self",85,6,6,1,518,518,"unrelated","selfish","self","ish",7,3,4,"transparent","vowel",38.9083,1.601063228,12.196,1.120442307,1.428956419,"selfish","high","low","high","low","A",518,6.24997524225948,1.93050193050193
"166",7,186,"drunken","List2","fresh",86,6,6,1,594,594,"unrelated","freshen","fresh","en",7,2,5,"transparent","vowel",73.8305,1.874078647,0.475942,0.169069291,11.084677914,"freshen","high","high","high","high","A",594,6.38687931936265,1.68350168350168
"167",7,187,"foolish","List2","debt",87,6,6,1,596,596,"unrelated","debtor","debt","or",6,2,4,"transparent","vowel",26.1768,1.434198318,0.951884,0.290454004,4.937781175,"debtor","high","high","high","high","A",596,6.39024066706535,1.67785234899329
"168",7,188,"freakish","List2","pray",88,6,6,1,500,500,"unrelated","prayer","pray","er",6,2,4,"transparent","vowel",15.1707,1.20872882,20.5845,1.334141993,0.90599713181654,"prayer","high","low","low","low","A",500,6.21460809842219,2
"169",7,189,"flaxen","List2","profess",89,6,6,1,441,441,"unrelated","professor","profess","or",9,2,7,"transparent","vowel",0.951884,0.290454004,74.9609,1.880590102,0.154448332,"professor","high","low","low","low","A",441,6.08904487544685,2.26757369614512
"170",7,190,"hunter","List2","soft",90,6,6,1,498,498,"unrelated","soften","soft","en",6,2,4,"transparent","vowel",81.0886,1.914282849,4.04551,0.702905071,2.723387446,"soften","high","high","high","high","A",498,6.21060007702465,2.00803212851406
"171",7,191,"sailor","List2","fast",91,6,6,1,509,509,"unrelated","fasten","fast","en",6,2,4,"transparent","vowel",102.982,2.016958166,2.85565,0.586097604,3.441334939,"fasten","high","high","high","high","A",509,6.23244801655052,1.96463654223969
"172",7,192,"tractor","List1","draw",92,6,6,1,431,431,"unrelated","drawer","draw","er",6,2,4,"transparent","vowel",58.7194,1.776115436,16.0036,1.23054088,1.44336158466888,"drawer","high","low","high","low","B",431,6.06610809010375,2.32018561484919
"173",7,193,"sculptor","List1","green",93,6,6,1,523,523,"unrelated","greenish","green","ish",8,3,5,"transparent","vowel",154.027,2.190407343,2.73667,0.572484745,3.826140973,"greenish","high","high","high","high","B",523,6.25958146406492,1.91204588910134
"174",7,194,"selfish","List1","book",94,6,6,1,676,676,"unrelated","bookish","book","ish",7,3,4,"transparent","vowel",252.249,2.403547739,1.6063,0.416024404,5.777420051,"bookish","high","high","high","high","B",676,6.51619307604296,1.4792899408284
"175",7,195,"freshen","List1","drunk",95,6,6,1,448,448,"unrelated","drunken","drunk","en",7,2,5,"transparent","vowel",38.4918,1.596506929,8.21,0.96425963,1.65568160034276,"drunken","high","low","high","high","B",448,6.10479323241498,2.23214285714286
"176",7,196,"debtor","List1","fool",96,6,6,1,542,542,"unrelated","foolish","fool","ish",7,3,4,"transparent","vowel",37.4804,1.585239578,20.525,1.33294316,1.18927770094167,"foolish","high","low","high","low","B",542,6.29526600143965,1.8450184501845
"177",7,197,"prayer","List1","freak",97,6,6,1,491,491,"unrelated","freakish","freak","ish",8,3,5,"transparent","vowel",5.35435,0.803071132,0.713913,0.233988773,3.432092567,"freakish","high","high","high","high","B",491,6.19644412779452,2.03665987780041
"178",7,198,"professor","List1","flax",98,6,6,1,492,492,"unrelated","flaxen","flax","en",6,2,4,"transparent","vowel",2.20123,0.505316878,0.118986,0.048824653,10.349625376,"flaxen","high","high","high","high","B",492,6.19847871649231,2.03252032520325
"179",7,199,"soften","List1","hunt",99,6,6,1,652,652,"unrelated","hunter","hunt","er",6,2,4,"transparent","vowel",22.9642,1.379562935,11.8391,1.108534581,1.244492465,"hunter","high","low","high","low","B",652,6.48004456192665,1.53374233128834
"180",7,200,"fasten","List1","sail",100,6,6,1,640,640,"unrelated","sailor","sail","or",6,2,4,"transparent","vowel",8.21,0.96425963,5.88978,0.838205355,1.15038590853385,"sailor","high","low","high","low","B",640,6.46146817635372,1.5625
"181",8,1,"breadth","List1","bread",1,6,6,1,618,618,"related","breadth","bread","th",7,2,5,"opaque","consonant",76.9836,1.89200328,4.40246,0.73259156,2.58261681,"breadth","low","high","high","high","A",618,6.42648845745769,1.61812297734628
"182",8,2,"hearth","List1","hear",2,6,6,1,645,645,"related","hearth","hear","th",6,2,4,"opaque","consonant",183.476,2.265939873,4.64044,0.751312984,3.01597326,"hearth","low","high","high","high","A",645,6.46925031679577,1.55038759689922
"183",8,3,"youth","List1","you",3,6,6,1,531,531,"related","youth","you","th",5,2,3,"opaque","consonant",6334.67,3.801792548,63.4788,1.809416946,2.101114701,"youth","low","low","high","high","A",531,6.27476202124194,1.88323917137476
"184",8,4,"kindling","List2","kind",4,6,6,1,406,406,"related","kindling","kind","ling",8,4,4,"opaque","consonant",409.846,2.613679063,0.951884,0.290454004,8.998598807,"kindling","low","high","high","high","B",406,6.00635315960173,2.46305418719212
"185",8,5,"dumpling","List2","dump",5,6,6,1,835,835,"related","dumpling","dump","ling",8,4,4,"opaque","consonant",7.67457,0.938247956,0.356957,0.132566086,7.077586563,"dumpling","low","high","high","high","B",835,6.72743172485086,1.19760479041916
"186",8,6,"random","List2","ran",6,6,6,1,483,483,"related","random","ran","dom",6,3,3,"opaque","consonant",116.606,2.070429479,18.2643,1.284753233,1.61153864,"random","low","low","high","high","B",483,6.18001665365257,2.0703933747412
"187",8,7,"dearth","List2","dear",7,6,6,1,545,545,"related","dearth","dear","th",6,2,4,"opaque","consonant",119.58,2.08127528,0.951884,0.290454004,7.16559332690214,"dearth","low","high","high","high","B",545,6.30078579466324,1.8348623853211
"188",8,8,"career","List1","car",8,6,6,1,694,694,"related","career","car","eer",6,3,3,"opaque","vowel",274.916,2.440776885,57.1725,1.764717728,1.383097617,"career","low","low","high","low","A",694,6.5424719605068,1.44092219020173
"189",8,9,"ratify","List1","rat",9,6,6,1,584,584,"related","ratify","rat","ify",6,3,3,"opaque","vowel",8.68594,0.986141774,0.713913,0.233988773,4.214483273,"ratify","low","high","high","high","A",584,6.36990098282823,1.71232876712329
"190",8,10,"factory","List1","fact",10,6,6,1,900,900,"related","factory","fact","ory",7,3,4,"opaque","vowel",448.635,2.65286011,39.2652,1.604929861,1.65294457584216,"factory","low","low","high","high","A",900,6.80239476332431,1.11111111111111
"191",8,11,"pillory","List1","pill",11,6,6,1,720,720,"related","pillory","pill","ory",7,3,4,"opaque","vowel",13.8023,1.170329202,0.416449,0.151200942,7.740224226,"pillory","low","high","high","high","A",720,6.5792512120101,1.38888888888889
"192",8,12,"hickory","List2","hick",12,6,6,1,448,448,"related","hickory","hick","ory",7,3,4,"opaque","vowel",1.24935,0.352057037,1.13036,0.328452999,1.071864276,"hickory","low","low","high","low","B",448,6.10479323241498,2.23214285714286
"193",8,13,"auditory","List2","audit",13,6,6,1,647,647,"related","auditory","audit","ory",8,3,5,"opaque","vowel",1.6063,0.416024404,0.356957,0.132566086,3.138241562,"auditory","low","high","high","high","B",647,6.4723462945009,1.54559505409583
"194",8,14,"testify","List2","test",14,6,6,1,481,481,"related","testify","test","ify",7,3,4,"opaque","vowel",79.4228,1.905379189,5.23536,0.794861533,2.397120891,"testify","low","high","high","high","B",481,6.17586727010576,2.07900207900208
"195",8,15,"seedling","List1","seed",15,6,6,1,467,467,"related","seedling","seed","ling",8,4,4,"transparent","consonant",28.616,1.471526401,0.594928,0.202741082,7.258155965,"seedling","low","high","high","high","A",467,6.1463292576689,2.14132762312634
"196",8,16,"warmth","List1","warm",16,6,6,1,492,492,"related","warmth","warm","th",6,2,4,"transparent","consonant",94.177,1.978532012,24.987,1.414756146,1.398496848,"warmth","low","low","high","low","A",492,6.19847871649231,2.03252032520325
"197",8,17,"fourth","List1","four",17,6,6,1,638,638,"related","fourth","four","th",6,2,4,"transparent","consonant",319.714,2.506117918,45.274,1.665337042,1.504871298,"fourth","low","low","high","high","A",638,6.45833828334479,1.56739811912226
"198",8,18,"boyhood","List1","boy",18,6,6,1,445,445,"related","boyhood","boy","hood",7,4,3,"transparent","consonant",223.871,2.351933451,4.52145,0.742053144,3.16949462,"boyhood","low","high","high","high","A",445,6.09807428216624,2.24719101123596
"199",8,19,"eleventh","List1","eleven",19,6,6,1,574,574,"related","eleventh","eleven","th",8,2,6,"transparent","consonant",40.0386,1.613192537,4.69993,0.755869522,2.134220904,"eleventh","low","low","high","high","A",574,6.35262939631957,1.74216027874564
"200",8,20,"sixth","List1","six",20,6,6,1,494,494,"related","sixth","six","th",5,2,3,"transparent","consonant",203.227,2.310113158,16.063,1.232055391,1.875007547,"sixth","low","low","high","high","A",494,6.20253551718792,2.02429149797571
"201",8,21,"duckling","List1","duck",21,6,6,1,465,465,"related","duckling","duck","ling",8,4,4,"transparent","consonant",9.8758,1.036461213,0.297464,0.113095317,9.164492672,"duckling","low","high","high","high","A",465,6.14203740558736,2.1505376344086
"202",8,22,"stardom","List1","star",22,6,6,1,439,439,"related","stardom","star","dom",7,3,4,"transparent","consonant",54.6738,1.745650865,1.13036,0.328452999,5.314766085,"stardom","low","high","high","high","A",439,6.08449941307517,2.27790432801822
"203",8,23,"manhood","List1","man",23,6,6,1,505,505,"related","manhood","man","hood",7,4,3,"transparent","consonant",1024.11,3.01077047,6.06826,0.849312516,3.5449500740138,"manhood","low","high","high","high","A",505,6.22455842927536,1.98019801980198
"204",8,24,"boredom","List2","bore",24,6,6,1,628,628,"related","boredom","bore","dom",7,3,4,"transparent","consonant",28.497,1.469777848,15.2301,1.210321196,1.214370079,"boredom","low","low","high","low","B",628,6.4425401664682,1.59235668789809
"205",8,25,"tenth","List2","ten",25,6,6,1,470,470,"related","tenth","ten","th",5,2,3,"transparent","consonant",219.647,2.343698027,10.5302,1.061836841,2.207211065,"tenth","low","low","high","high","B",470,6.1527326947041,2.12765957446809
"206",8,26,"freedom","List2","free",26,6,6,1,499,499,"related","freedom","free","dom",7,3,4,"transparent","consonant",209.652,2.323565587,101.673,2.011456252,1.155165857,"freedom","low","low","high","low","B",499,6.21260609575152,2.00400801603206
"207",8,27,"kingdom","List2","king",27,6,6,1,741,741,"related","kingdom","king","dom",7,3,4,"transparent","consonant",91.7378,1.967256789,28.973,1.476730214,1.332170744,"kingdom","low","low","high","low","B",741,6.60800062529609,1.34952766531714
"208",8,28,"sapling","List2","sap",28,6,6,1,587,587,"related","sapling","sap","ling",7,4,3,"transparent","consonant",2.79616,0.579344509,0.713913,0.233988773,2.475950017,"sapling","low","high","high","high","B",587,6.3750248198281,1.70357751277683
"209",8,29,"earthling","List2","earth",29,6,6,1,474,474,"related","earthling","earth","ling",9,4,5,"transparent","consonant",161.999,2.21218494,0.237971,0.092710471,23.861219690479,"earthling","low","high","high","high","B",474,6.16120732169508,2.10970464135021
"210",8,30,"growth","List2","grow",30,6,6,1,501,501,"related","growth","grow","th",6,2,4,"transparent","consonant",95.4264,1.984195953,121.841,2.089343343,0.949674432,"growth","low","low","low","low","B",501,6.21660610108486,1.99600798403194
"211",8,31,"serfdom","List2","serf",31,6,6,1,605,605,"related","serfdom","serf","dom",7,3,4,"transparent","consonant",0.356957,0.132566086,0.237971,0.092710471,1.429893335,"serfdom","low","low","high","low","B",605,6.40522845803084,1.65289256198347
"212",8,32,"health","List2","heal",32,6,6,1,598,598,"related","health","heal","th",6,2,4,"transparent","consonant",4.75942,0.76037875,130.587,2.119212986,0.35880242083473,"health","low","low","low","low","B",598,6.39359075395063,1.67224080267559
"213",8,33,"cashier","List1","cash",33,6,6,1,631,631,"related","cashier","cash","ier",7,3,4,"transparent","vowel",54.3169,1.742857834,2.20123,0.505316878,3.449039418,"cashier","low","high","high","high","A",631,6.44730586254121,1.58478605388273
"214",8,34,"solidify","List1","solid",34,6,6,1,484,484,"related","solidify","solid","ify",8,3,5,"transparent","vowel",46.5233,1.67690659,0.475942,0.169069291,9.91845751622358,"solidify","low","high","high","high","A",484,6.18208490671663,2.06611570247934
"215",8,35,"fortify","List1","fort",35,6,6,1,856,856,"related","fortify","fort","ify",7,3,4,"transparent","vowel",23.7971,1.394400893,1.18986,0.340416351,4.09616308,"fortify","low","high","high","high","A",856,6.75227037614174,1.16822429906542
"216",8,36,"profiteer","List1","profit",36,6,6,1,607,607,"related","profiteer","profit","eer",9,3,6,"transparent","vowel",36.945,1.579154557,0.118986,0.048824653,32.343384492,"profiteer","low","high","high","high","A",607,6.4085287910595,1.64744645799012
"217",8,37,"directory","List1","direct",37,6,6,1,652,652,"related","directory","direct","ory",9,3,6,"transparent","vowel",94.2365,1.978803426,3.98601,0.697753145,2.835964893,"directory","low","high","high","high","A",652,6.48004456192665,1.53374233128834
"218",8,38,"armory","List1","arm",38,6,6,1,616,616,"related","armory","arm","ory",6,3,3,"transparent","vowel",111.132,2.049729568,0,0,2049729568,"armory","low","high","high","high","A",616,6.42324696353352,1.62337662337662
"219",8,39,"acidify","List1","acid",39,6,6,1,642,642,"related","acidify","acid","ify",7,3,4,"transparent","vowel",21.8933,1.359708399,0,0,1359708399,"acidify","low","high","high","high","A",642,6.46458830368996,1.55763239875389
"220",8,40,"frontier","List1","front",40,6,6,1,667,667,"related","frontier","front","ier",8,3,5,"transparent","vowel",263.077,2.421730578,13.0884,1.148861674,2.107939216,"frontier","low","low","high","high","A",667,6.50279004591562,1.49925037481259
"221",8,41,"humidify","List1","humid",41,6,6,1,607,607,"related","humidify","humid","ify",8,3,5,"transparent","vowel",3.03413,0.605749889,0.237971,0.092710471,6.533780661,"humidify","low","high","high","high","A",607,6.4085287910595,1.64744645799012
"222",8,42,"classify","List2","class",42,6,6,1,663,663,"related","classify","class","ify",8,3,5,"transparent","vowel",203.287,2.310240731,1.6658,0.425827564,5.425296343,"classify","low","high","high","high","B",663,6.49677499018586,1.50829562594268
"223",8,43,"hotelier","List2","hotel",43,6,6,1,733,733,"related","hotelier","hotel","ier",8,3,5,"transparent","vowel",125.589,2.102395969,0.178478,0.071321479,29.47773895,"hotelier","low","high","high","high","B",733,6.59714570188665,1.36425648021828
"224",8,44,"marketeer","List2","market",44,6,6,1,511,511,"related","marketeer","market","eer",9,3,6,"transparent","vowel",132.55,2.125643892,0.178478,0.071321479,29.803698577,"marketeer","low","high","high","high","B",511,6.2363695902037,1.95694716242661
"225",8,45,"justify","List2","just",45,6,6,1,462,462,"related","justify","just","ify",7,3,4,"transparent","vowel",1236.44,3.09252415,16.42,1.241048151,2.49186475562312,"justify","low","high","high","high","B",462,6.13556489108174,2.16450216450216
"226",8,46,"courtier","List2","court",46,6,6,1,481,481,"related","courtier","court","ier",8,3,5,"transparent","vowel",128.088,2.110885872,1.6063,0.416024404,5.073947217,"courtier","low","high","high","high","B",481,6.17586727010576,2.07900207900208
"227",8,47,"nullify","List2","null",47,6,6,1,834,834,"related","nullify","null","ify",7,3,4,"transparent","vowel",0.356957,0.132566086,0.713913,0.233988773,0.566548915,"nullify","low","low","low","low","B",834,6.72623340235875,1.19904076738609
"228",8,48,"racketeer","List2","racket",48,6,6,1,484,484,"related","racketeer","racket","eer",9,3,6,"transparent","vowel",11.7201,1.104490526,0.0594928,0.02509801,44.0070938689126,"racketeer","low","high","high","high","B",484,6.18208490671663,2.06611570247934
"229",8,49,"musketeer","List2","musket",49,6,6,1,577,577,"related","musketeer","musket","eer",9,3,6,"transparent","vowel",0.65442,0.218645772,0,0,218645772,"musketeer","low","high","high","high","B",577,6.3578422665081,1.73310225303293
"230",8,50,"clothier","List2","cloth",50,6,6,1,696,696,"related","clothier","cloth","ier",8,3,5,"transparent","vowel",47.2967,1.683917457,0,0,1683917457,"clothier","low","high","high","high","B",696,6.54534966033442,1.4367816091954
"231",8,51,"witness","List1","wit",51,6,6,1,729,729,"related","witness","wit","ness",7,4,3,"opaque","consonant",11.0062,1.079405574,23.7376,1.393357563,0.774679524,"witness","high","low","low","low","A",729,6.59167373200866,1.37174211248285
"232",8,52,"imply","List2","imp",52,6,6,1,669,669,"related","imply","imp","ly",5,2,3,"opaque","consonant",1.01138,0.303494127,12.1365,1.11847967,0.271345233059672,"imply","high","low","low","low","B",669,6.50578406012823,1.49476831091181
"233",8,53,"listen","List1","list",53,6,6,1,516,516,"related","listen","list","en",6,2,4,"opaque","vowel",74.6634,1.878885853,75.4368,1.883302497,0.99765484,"listen","high","low","low","low","A",516,6.24610676548156,1.93798449612403
"234",8,55,"banish","List1","ban",55,6,6,1,634,634,"related","banish","ban","ish",6,3,3,"opaque","vowel",13.6833,1.166823672,2.14174,0.497170241,2.346929831,"banish","high","low","high","high","A",634,6.45204895443723,1.57728706624606
"235",8,56,"heathen","List1","heath",56,6,6,1,1044,1044,"related","heathen","heath","en",7,2,5,"opaque","vowel",13.6238,1.165060239,2.55819,0.551229135,2.113567957,"heathen","high","low","high","high","A",1044,6.95081476844258,0.957854406130268
"236",8,57,"mister","List1","mist",57,6,6,1,655,655,"related","mister","mist","er",6,2,4,"opaque","vowel",13.8023,1.170329202,7.02015,0.904182491,1.294350656,"mister","high","low","high","low","A",655,6.48463523563525,1.52671755725191
"237",8,58,"raptor","List1","rapt",58,6,6,1,930,930,"related","raptor","rapt","or",6,2,4,"opaque","vowel",2.14174,0.497170241,0,0,497170241,"raptor","high","high","high","high","A",930,6.8351845861473,1.0752688172043
"238",8,59,"flower","List2","flow",59,6,6,1,611,611,"related","flower","flow","er",6,2,4,"opaque","vowel",41.9424,1.632886313,27.9616,1.461822551,1.11702088,"flower","high","low","high","low","B",611,6.4150969591716,1.6366612111293
"239",8,60,"traitor","List2","trait",60,6,6,1,589,589,"related","traitor","trait","or",7,2,5,"opaque","vowel",3.2721,0.63064141,6.18725,0.856562752,0.736246594649674,"traitor","high","low","low","low","B",589,6.37842618365159,1.69779286926995
"240",8,61,"limber","List2","limb",61,6,6,1,556,556,"related","limber","limb","er",6,2,4,"opaque","vowel",7.91254,0.950001492,0.773406,0.248808173,3.818208529,"limber","high","high","high","high","B",556,6.32076829425058,1.79856115107914
"241",8,62,"hunger","List2","hung",62,6,6,1,606,606,"related","hunger","hung","er",6,2,4,"opaque","vowel",58.6004,1.775249174,25.2249,1.418713841,1.251308841,"hunger","high","low","high","low","B",606,6.40687998606931,1.65016501650165
"242",8,64,"vanish","List2","van",64,6,6,1,589,589,"related","vanish","van","ish",6,3,3,"opaque","vowel",56.3396,1.758454659,6.18725,0.856562752,2.052919827,"vanish","high","low","high","high","B",589,6.37842618365159,1.69779286926995
"243",8,65,"helpless","List1","help",65,6,6,1,497,497,"related","helpless","help","less",8,4,4,"transparent","consonant",375.221,2.575443033,19.3351,1.308246312,1.968622428,"helpless","high","low","high","high","A",497,6.20859002609663,2.01207243460765
"244",8,66,"chiefly","List1","chief",66,6,6,1,562,562,"related","chiefly","chief","ly",7,2,5,"transparent","consonant",105.54,2.027512692,11.3036,1.090032203,1.860048432,"chiefly","high","low","high","high","A",562,6.33150184989369,1.77935943060498
"245",8,67,"strongly","List1","strong",67,6,6,1,543,543,"related","strongly","strong","ly",8,2,6,"transparent","consonant",167.948,2.227753055,42.3588,1.637077254,1.360811195,"strongly","high","low","high","low","A",543,6.29710931993394,1.84162062615101
"246",8,68,"deafness","List1","deaf",68,6,6,1,407,407,"related","deafness","deaf","ness",8,4,4,"transparent","consonant",9.51884,1.021967849,2.08225,0.488867861,2.090478693,"deafness","high","low","high","high","A",407,6.00881318544259,2.45700245700246
"247",8,69,"deadly","List1","dead",69,6,6,1,497,497,"related","deadly","dead","ly",6,2,4,"transparent","consonant",190.079,2.28121296,13.6833,1.166823672,1.95506228814746,"deadly","high","low","high","high","A",497,6.20859002609663,2.01207243460765
"248",8,70,"sickness","List1","sick",70,6,6,1,671,671,"related","sickness","sick","ness",8,4,4,"transparent","consonant",70.6179,1.855021582,16.4795,1.242529006,1.492940263,"sickness","high","low","high","low","A",671,6.50876913697168,1.4903129657228
"249",8,71,"worthless","List1","worth",71,6,6,1,477,477,"related","worthless","worth","less",9,4,5,"transparent","consonant",99.1149,2.000498718,5.17587,0.790698146,2.530040984,"worthless","high","high","high","high","A",477,6.16751649088834,2.09643605870021
"250",8,72,"thankless","List1","thank",72,6,6,1,791,791,"related","thankless","thank","less",9,4,5,"transparent","consonant",69.4875,1.848112108,0.65442,0.218645772,8.452539844,"thankless","high","high","high","high","A",791,6.67329796776765,1.26422250316056
"251",8,73,"toothless","List1","tooth",73,6,6,1,610,610,"related","toothless","tooth","less",9,NA,5,"transparent","consonant",13.5643,1.163289616,1.84428,0.453972347,2.562468003,"toothless","high","high","high","high","A",610,6.41345895716736,1.63934426229508
"252",8,74,"weakness","List2","weak",74,6,6,1,663,663,"related","weakness","weak","ness",8,4,4,"transparent","consonant",47.9512,1.689763343,21.8338,1.358578193,1.243773344,"weakness","high","low","high","low","B",663,6.49677499018586,1.50829562594268
"253",8,75,"greatly","List2","great",75,6,6,1,475,475,"related","greatly","great","ly",7,2,5,"transparent","consonant",639.726,2.806672348,40.3361,1.616329499,1.736448136,"greatly","high","low","high","high","B",475,6.16331480403464,2.10526315789474
"254",8,76,"illness","List2","ill",76,6,6,1,464,464,"related","illness","ill","ness",7,4,3,"transparent","consonant",56.5181,1.759804532,35.3982,1.561079907,1.127299457,"illness","high","low","high","low","B",464,6.13988455222626,2.1551724137931
"255",8,77,"calmness","List2","calm",77,6,6,1,382,382,"related","calmness","calm","ness",8,4,4,"transparent","consonant",41.288,1.626217146,1.01138,0.303494127,5.358315025,"calmness","high","high","high","high","B",382,5.94542060860658,2.61780104712042
"256",8,78,"deathlike","List2","death",78,6,6,1,466,466,"related","deathlike","death","like",9,4,5,"transparent","consonant",233.152,2.369497872,0,0,2369497872,"deathlike","high","high","high","high","B",466,6.14418563412565,2.14592274678112
"257",8,80,"highly","List2","high",80,6,6,1,381,381,"related","highly","high","ly",6,2,4,"transparent","consonant",369.866,2.56921702,93.8796,1.977172845,1.2994397658241,"highly","high","low","high","low","B",381,5.9427993751267,2.6246719160105
"258",8,81,"stainless","List2","stain",81,6,6,1,520,520,"related","stainless","stain","less",9,4,5,"transparent","consonant",7.3771,0.9230937,2.37971,0.528879437,1.7453764197957,"stainless","high","low","high","high","B",520,6.25382881157547,1.92307692307692
"259",8,82,"warlike","List2","war",82,6,6,1,390,390,"related","warlike","war","like",7,4,3,"transparent","consonant",340.12,2.532907183,1.6063,0.416024404,6.088362011,"warlike","high","high","high","high","B",390,5.96614673912369,2.56410256410256
"260",8,84,"sculptor","List1","sculpt",84,6,6,1,689,689,"related","sculptor","sculpt","or",8,2,6,"transparent","vowel",0,0,3.62906,0.66549281,0,"sculptor","high","low","low","low","A",689,6.53524127101366,1.45137880986938
"261",8,85,"selfish","List1","self",85,6,6,1,557,557,"related","selfish","self","ish",7,3,4,"transparent","vowel",38.9083,1.601063228,12.196,1.120442307,1.428956419,"selfish","high","low","high","low","A",557,6.32256523992728,1.79533213644524
"262",8,86,"freshen","List1","fresh",86,6,6,1,477,477,"related","freshen","fresh","en",7,2,5,"transparent","vowel",73.8305,1.874078647,0.475942,0.169069291,11.084677914,"freshen","high","high","high","high","A",477,6.16751649088834,2.09643605870021
"263",8,87,"debtor","List1","debt",87,6,6,1,653,653,"related","debtor","debt","or",6,2,4,"transparent","vowel",26.1768,1.434198318,0.951884,0.290454004,4.937781175,"debtor","high","high","high","high","A",653,6.48157712927643,1.53139356814701
"264",8,88,"prayer","List1","pray",88,6,6,1,486,486,"related","prayer","pray","er",6,2,4,"transparent","vowel",15.1707,1.20872882,20.5845,1.334141993,0.90599713181654,"prayer","high","low","low","low","A",486,6.18620862390049,2.05761316872428
"265",8,90,"soften","List1","soft",90,6,6,1,577,577,"related","soften","soft","en",6,2,4,"transparent","vowel",81.0886,1.914282849,4.04551,0.702905071,2.723387446,"soften","high","high","high","high","A",577,6.3578422665081,1.73310225303293
"266",8,91,"fasten","List1","fast",91,6,6,1,704,704,"related","fasten","fast","en",6,2,4,"transparent","vowel",102.982,2.016958166,2.85565,0.586097604,3.441334939,"fasten","high","high","high","high","A",704,6.55677835615804,1.42045454545455
"267",8,92,"drawer","List2","draw",92,6,6,1,613,613,"related","drawer","draw","er",6,2,4,"transparent","vowel",58.7194,1.776115436,16.0036,1.23054088,1.44336158466888,"drawer","high","low","high","low","B",613,6.41836493593621,1.63132137030995
"268",8,93,"greenish","List2","green",93,6,6,1,561,561,"related","greenish","green","ish",8,3,5,"transparent","vowel",154.027,2.190407343,2.73667,0.572484745,3.826140973,"greenish","high","high","high","high","B",561,6.3297209055227,1.7825311942959
"269",8,94,"bookish","List2","book",94,6,6,1,404,404,"related","bookish","book","ish",7,3,4,"transparent","vowel",252.249,2.403547739,1.6063,0.416024404,5.777420051,"bookish","high","high","high","high","B",404,6.00141487796115,2.47524752475248
"270",8,95,"drunken","List2","drunk",95,6,6,1,576,576,"related","drunken","drunk","en",7,2,5,"transparent","vowel",38.4918,1.596506929,8.21,0.96425963,1.65568160034276,"drunken","high","low","high","high","B",576,6.35610766069589,1.73611111111111
"271",8,96,"foolish","List2","fool",96,6,6,1,488,488,"related","foolish","fool","ish",7,3,4,"transparent","vowel",37.4804,1.585239578,20.525,1.33294316,1.18927770094167,"foolish","high","low","high","low","B",488,6.19031540585315,2.04918032786885
"272",8,97,"freakish","List2","freak",97,6,6,1,442,442,"related","freakish","freak","ish",8,3,5,"transparent","vowel",5.35435,0.803071132,0.713913,0.233988773,3.432092567,"freakish","high","high","high","high","B",442,6.0913098820777,2.26244343891403
"273",8,98,"flaxen","List2","flax",98,6,6,1,483,483,"related","flaxen","flax","en",6,2,4,"transparent","vowel",2.20123,0.505316878,0.118986,0.048824653,10.349625376,"flaxen","high","high","high","high","B",483,6.18001665365257,2.0703933747412
"274",8,99,"hunter","List2","hunt",99,6,6,1,596,596,"related","hunter","hunt","er",6,2,4,"transparent","vowel",22.9642,1.379562935,11.8391,1.108534581,1.244492465,"hunter","high","low","high","low","B",596,6.39024066706535,1.67785234899329
"275",8,100,"sailor","List2","sail",100,6,6,1,576,576,"related","sailor","sail","or",6,2,4,"transparent","vowel",8.21,0.96425963,5.88978,0.838205355,1.15038590853385,"sailor","high","low","high","low","B",576,6.35610766069589,1.73611111111111
"276",8,101,"kindling","List2","bread",1,6,6,1,490,490,"unrelated","breadth","bread","th",7,2,5,"opaque","consonant",76.9836,1.89200328,4.40246,0.73259156,2.58261681,"breadth","low","high","high","high","A",490,6.19440539110467,2.04081632653061
"277",8,102,"dumpling","List2","hear",2,6,6,1,476,476,"unrelated","hearth","hear","th",6,2,4,"opaque","consonant",183.476,2.265939873,4.64044,0.751312984,3.01597326,"hearth","low","high","high","high","A",476,6.16541785423142,2.10084033613445
"278",8,103,"random","List2","you",3,6,6,1,484,484,"unrelated","youth","you","th",5,2,3,"opaque","consonant",6334.67,3.801792548,63.4788,1.809416946,2.101114701,"youth","low","low","high","high","A",484,6.18208490671663,2.06611570247934
"279",8,104,"breadth","List1","kind",4,6,6,1,523,523,"unrelated","kindling","kind","ling",8,4,4,"opaque","consonant",409.846,2.613679063,0.951884,0.290454004,8.998598807,"kindling","low","high","high","high","B",523,6.25958146406492,1.91204588910134
"280",8,105,"hearth","List1","dump",5,6,6,1,594,594,"unrelated","dumpling","dump","ling",8,4,4,"opaque","consonant",7.67457,0.938247956,0.356957,0.132566086,7.077586563,"dumpling","low","high","high","high","B",594,6.38687931936265,1.68350168350168
"281",8,106,"youth","List1","ran",6,6,6,1,597,597,"unrelated","random","ran","dom",6,3,3,"opaque","consonant",116.606,2.070429479,18.2643,1.284753233,1.61153864,"random","low","low","high","high","B",597,6.3919171133926,1.6750418760469
"282",8,107,"pillory","List1","dear",7,6,6,1,504,504,"unrelated","dearth","dear","th",6,2,4,"opaque","consonant",119.58,2.08127528,0.951884,0.290454004,7.16559332690214,"dearth","low","high","high","high","B",504,6.22257626807137,1.98412698412698
"283",8,108,"hickory","List2","car",8,6,6,1,593,593,"unrelated","career","car","eer",6,3,3,"opaque","vowel",274.916,2.440776885,57.1725,1.764717728,1.383097617,"career","low","low","high","low","A",593,6.38519439899773,1.68634064080944
"284",8,109,"auditory","List2","rat",9,6,6,1,440,440,"unrelated","ratify","rat","ify",6,3,3,"opaque","vowel",8.68594,0.986141774,0.713913,0.233988773,4.214483273,"ratify","low","high","high","high","A",440,6.08677472691231,2.27272727272727
"285",8,110,"testify","List2","fact",10,6,6,1,636,636,"unrelated","factory","fact","ory",7,3,4,"opaque","vowel",448.635,2.65286011,39.2652,1.604929861,1.65294457584216,"factory","low","low","high","high","A",636,6.45519856334012,1.57232704402516
"286",8,111,"dearth","List2","pill",11,6,6,1,517,517,"unrelated","pillory","pill","ory",7,3,4,"opaque","vowel",13.8023,1.170329202,0.416449,0.151200942,7.740224226,"pillory","low","high","high","high","A",517,6.24804287450843,1.93423597678917
"287",8,112,"career","List1","hick",12,6,6,1,887,887,"unrelated","hickory","hick","ory",7,3,4,"opaque","vowel",1.24935,0.352057037,1.13036,0.328452999,1.071864276,"hickory","low","low","high","low","B",887,6.78784498230958,1.12739571589628
"288",8,113,"ratify","List1","audit",13,6,6,1,666,666,"unrelated","auditory","audit","ory",8,3,5,"opaque","vowel",1.6063,0.416024404,0.356957,0.132566086,3.138241562,"auditory","low","high","high","high","B",666,6.50128967054039,1.5015015015015
"289",8,114,"factory","List1","test",14,6,6,1,605,605,"unrelated","testify","test","ify",7,3,4,"opaque","vowel",79.4228,1.905379189,5.23536,0.794861533,2.397120891,"testify","low","high","high","high","B",605,6.40522845803084,1.65289256198347
"290",8,115,"boredom","List2","seed",15,6,6,1,478,478,"unrelated","seedling","seed","ling",8,4,4,"transparent","consonant",28.616,1.471526401,0.594928,0.202741082,7.258155965,"seedling","low","high","high","high","A",478,6.16961073249146,2.09205020920502
"291",8,116,"tenth","List2","warm",16,6,6,1,465,465,"unrelated","warmth","warm","th",6,2,4,"transparent","consonant",94.177,1.978532012,24.987,1.414756146,1.398496848,"warmth","low","low","high","low","A",465,6.14203740558736,2.1505376344086
"292",8,117,"freedom","List2","four",17,6,6,1,597,597,"unrelated","fourth","four","th",6,2,4,"transparent","consonant",319.714,2.506117918,45.274,1.665337042,1.504871298,"fourth","low","low","high","high","A",597,6.3919171133926,1.6750418760469
"293",8,118,"kingdom","List2","boy",18,6,6,1,547,547,"unrelated","boyhood","boy","hood",7,4,3,"transparent","consonant",223.871,2.351933451,4.52145,0.742053144,3.16949462,"boyhood","low","high","high","high","A",547,6.30444880242198,1.82815356489945
"294",8,119,"sapling","List2","eleven",19,6,6,1,491,491,"unrelated","eleventh","eleven","th",8,2,6,"transparent","consonant",40.0386,1.613192537,4.69993,0.755869522,2.134220904,"eleventh","low","low","high","high","A",491,6.19644412779452,2.03665987780041
"295",8,120,"earthling","List2","six",20,6,6,1,527,527,"unrelated","sixth","six","th",5,2,3,"transparent","consonant",203.227,2.310113158,16.063,1.232055391,1.875007547,"sixth","low","low","high","high","A",527,6.26720054854136,1.89753320683112
"296",8,121,"growth","List2","duck",21,6,6,1,623,623,"unrelated","duckling","duck","ling",8,4,4,"transparent","consonant",9.8758,1.036461213,0.297464,0.113095317,9.164492672,"duckling","low","high","high","high","A",623,6.43454651878745,1.60513643659711
"297",8,122,"serfdom","List2","star",22,6,6,1,560,560,"unrelated","stardom","star","dom",7,3,4,"transparent","consonant",54.6738,1.745650865,1.13036,0.328452999,5.314766085,"stardom","low","high","high","high","A",560,6.32793678372919,1.78571428571429
"298",8,123,"health","List2","man",23,6,6,1,391,391,"unrelated","manhood","man","hood",7,4,3,"transparent","consonant",1024.11,3.01077047,6.06826,0.849312516,3.5449500740138,"manhood","low","high","high","high","A",391,5.96870755998537,2.55754475703325
"299",8,124,"seedling","List1","bore",24,6,6,1,501,501,"unrelated","boredom","bore","dom",7,3,4,"transparent","consonant",28.497,1.469777848,15.2301,1.210321196,1.214370079,"boredom","low","low","high","low","B",501,6.21660610108486,1.99600798403194
"300",8,125,"warmth","List1","ten",25,6,6,1,555,555,"unrelated","tenth","ten","th",5,2,3,"transparent","consonant",219.647,2.343698027,10.5302,1.061836841,2.207211065,"tenth","low","low","high","high","B",555,6.31896811374643,1.8018018018018
"301",8,126,"fourth","List1","free",26,6,6,1,687,687,"unrelated","freedom","free","dom",7,3,4,"transparent","consonant",209.652,2.323565587,101.673,2.011456252,1.155165857,"freedom","low","low","high","low","B",687,6.53233429222235,1.45560407569141
"302",8,127,"boyhood","List1","king",27,6,6,1,688,688,"unrelated","kingdom","king","dom",7,3,4,"transparent","consonant",91.7378,1.967256789,28.973,1.476730214,1.332170744,"kingdom","low","low","high","low","B",688,6.53378883793334,1.45348837209302
"303",8,128,"eleventh","List1","sap",28,6,6,1,916,916,"unrelated","sapling","sap","ling",7,4,3,"transparent","consonant",2.79616,0.579344509,0.713913,0.233988773,2.475950017,"sapling","low","high","high","high","B",916,6.82001636467413,1.09170305676856
"304",8,129,"sixth","List1","earth",29,6,6,1,619,619,"unrelated","earthling","earth","ling",9,4,5,"transparent","consonant",161.999,2.21218494,0.237971,0.092710471,23.861219690479,"earthling","low","high","high","high","B",619,6.4281052726846,1.61550888529887
"305",8,130,"duckling","List1","grow",30,6,6,1,522,522,"unrelated","growth","grow","th",6,2,4,"transparent","consonant",95.4264,1.984195953,121.841,2.089343343,0.949674432,"growth","low","low","low","low","B",522,6.25766758788264,1.91570881226054
"306",8,132,"manhood","List1","heal",32,6,6,1,486,486,"unrelated","health","heal","th",6,2,4,"transparent","consonant",4.75942,0.76037875,130.587,2.119212986,0.35880242083473,"health","low","low","low","low","B",486,6.18620862390049,2.05761316872428
"307",8,133,"classify","List2","cash",33,6,6,1,539,539,"unrelated","cashier","cash","ier",7,3,4,"transparent","vowel",54.3169,1.742857834,2.20123,0.505316878,3.449039418,"cashier","low","high","high","high","A",539,6.289715570909,1.85528756957328
"308",8,134,"hotelier","List2","solid",34,6,6,1,539,539,"unrelated","solidify","solid","ify",8,3,5,"transparent","vowel",46.5233,1.67690659,0.475942,0.169069291,9.91845751622358,"solidify","low","high","high","high","A",539,6.289715570909,1.85528756957328
"309",8,135,"marketeer","List2","fort",35,6,6,1,599,599,"unrelated","fortify","fort","ify",7,3,4,"transparent","vowel",23.7971,1.394400893,1.18986,0.340416351,4.09616308,"fortify","low","high","high","high","A",599,6.39526159811545,1.669449081803
"310",8,136,"justify","List2","profit",36,6,6,1,526,526,"unrelated","profiteer","profit","eer",9,3,6,"transparent","vowel",36.945,1.579154557,0.118986,0.048824653,32.343384492,"profiteer","low","high","high","high","A",526,6.26530121273771,1.90114068441065
"311",8,137,"courtier","List2","direct",37,6,6,1,892,892,"unrelated","directory","direct","ory",9,3,6,"transparent","vowel",94.2365,1.978803426,3.98601,0.697753145,2.835964893,"directory","low","high","high","high","A",892,6.79346613258001,1.12107623318386
"312",8,138,"nullify","List2","arm",38,6,6,1,569,569,"unrelated","armory","arm","ory",6,3,3,"transparent","vowel",111.132,2.049729568,0,0,2049729568,"armory","low","high","high","high","A",569,6.34388043412633,1.75746924428822
"313",8,139,"racketeer","List2","acid",39,6,6,1,771,771,"unrelated","acidify","acid","ify",7,3,4,"transparent","vowel",21.8933,1.359708399,0,0,1359708399,"acidify","low","high","high","high","A",771,6.64768837356333,1.2970168612192
"314",8,140,"musketeer","List2","front",40,6,6,1,455,455,"unrelated","frontier","front","ier",8,3,5,"transparent","vowel",263.077,2.421730578,13.0884,1.148861674,2.107939216,"frontier","low","low","high","high","A",455,6.12029741895095,2.1978021978022
"315",8,141,"clothier","List2","humid",41,6,6,1,521,521,"unrelated","humidify","humid","ify",8,3,5,"transparent","vowel",3.03413,0.605749889,0.237971,0.092710471,6.533780661,"humidify","low","high","high","high","A",521,6.25575004175337,1.91938579654511
"316",8,142,"cashier","List1","class",42,6,6,1,595,595,"unrelated","classify","class","ify",8,3,5,"transparent","vowel",203.287,2.310240731,1.6658,0.425827564,5.425296343,"classify","low","high","high","high","B",595,6.38856140554563,1.68067226890756
"317",8,143,"solidify","List1","hotel",43,6,6,1,595,595,"unrelated","hotelier","hotel","ier",8,3,5,"transparent","vowel",125.589,2.102395969,0.178478,0.071321479,29.47773895,"hotelier","low","high","high","high","B",595,6.38856140554563,1.68067226890756
"318",8,144,"fortify","List1","market",44,6,6,1,467,467,"unrelated","marketeer","market","eer",9,3,6,"transparent","vowel",132.55,2.125643892,0.178478,0.071321479,29.803698577,"marketeer","low","high","high","high","B",467,6.1463292576689,2.14132762312634
"319",8,145,"profiteer","List1","just",45,6,6,1,572,572,"unrelated","justify","just","ify",7,3,4,"transparent","vowel",1236.44,3.09252415,16.42,1.241048151,2.49186475562312,"justify","low","high","high","high","B",572,6.3491389913798,1.74825174825175
"320",8,146,"directory","List1","court",46,6,6,1,704,704,"unrelated","courtier","court","ier",8,3,5,"transparent","vowel",128.088,2.110885872,1.6063,0.416024404,5.073947217,"courtier","low","high","high","high","B",704,6.55677835615804,1.42045454545455
"321",8,148,"acidify","List1","racket",48,6,6,1,495,495,"unrelated","racketeer","racket","eer",9,3,6,"transparent","vowel",11.7201,1.104490526,0.0594928,0.02509801,44.0070938689126,"racketeer","low","high","high","high","B",495,6.20455776256869,2.02020202020202
"322",8,150,"humidify","List1","cloth",50,6,6,1,626,626,"unrelated","clothier","cloth","ier",8,3,5,"transparent","vowel",47.2967,1.683917457,0,0,1683917457,"clothier","low","high","high","high","B",626,6.4393503711001,1.59744408945687
"323",8,151,"imply","List2","wit",51,6,6,1,547,547,"unrelated","witness","wit","ness",7,4,3,"opaque","consonant",11.0062,1.079405574,23.7376,1.393357563,0.774679524,"witness","high","low","low","low","A",547,6.30444880242198,1.82815356489945
"324",8,152,"witness","List1","imp",52,6,6,1,908,908,"unrelated","imply","imp","ly",5,2,3,"opaque","consonant",1.01138,0.303494127,12.1365,1.11847967,0.271345233059672,"imply","high","low","low","low","B",908,6.81124437860129,1.10132158590308
"325",8,153,"flower","List2","list",53,6,6,1,565,565,"unrelated","listen","list","en",6,2,4,"opaque","vowel",74.6634,1.878885853,75.4368,1.883302497,0.99765484,"listen","high","low","low","low","A",565,6.33682573114644,1.76991150442478
"326",8,154,"traitor","List2","past",54,6,6,1,487,487,"unrelated","pastor","past","or",6,2,4,"opaque","vowel",273.786,2.438994602,3.62906,0.66549281,3.66494507782143,"pastor","high","high","high","high","A",487,6.18826412308259,2.05338809034908
"327",8,155,"limber","List2","ban",55,6,6,1,599,599,"unrelated","banish","ban","ish",6,3,3,"opaque","vowel",13.6833,1.166823672,2.14174,0.497170241,2.346929831,"banish","high","low","high","high","A",599,6.39526159811545,1.669449081803
"328",8,156,"hunger","List2","heath",56,6,6,1,490,490,"unrelated","heathen","heath","en",7,2,5,"opaque","vowel",13.6238,1.165060239,2.55819,0.551229135,2.113567957,"heathen","high","low","high","high","A",490,6.19440539110467,2.04081632653061
"329",8,157,"pollen","List2","mist",57,6,6,1,556,556,"unrelated","mister","mist","er",6,2,4,"opaque","vowel",13.8023,1.170329202,7.02015,0.904182491,1.294350656,"mister","high","low","high","low","A",556,6.32076829425058,1.79856115107914
"330",8,158,"vanish","List2","rapt",58,6,6,1,549,549,"unrelated","raptor","rapt","or",6,2,4,"opaque","vowel",2.14174,0.497170241,0,0,497170241,"raptor","high","high","high","high","A",549,6.30809844150953,1.82149362477231
"331",8,159,"listen","List1","flow",59,6,6,1,626,626,"unrelated","flower","flow","er",6,2,4,"opaque","vowel",41.9424,1.632886313,27.9616,1.461822551,1.11702088,"flower","high","low","high","low","B",626,6.4393503711001,1.59744408945687
"332",8,160,"pastor","List1","trait",60,6,6,1,668,668,"unrelated","traitor","trait","or",7,2,5,"opaque","vowel",3.2721,0.63064141,6.18725,0.856562752,0.736246594649674,"traitor","high","low","low","low","B",668,6.50428817353665,1.49700598802395
"333",8,161,"banish","List1","limb",61,6,6,1,643,643,"unrelated","limber","limb","er",6,2,4,"opaque","vowel",7.91254,0.950001492,0.773406,0.248808173,3.818208529,"limber","high","high","high","high","B",643,6.46614472423762,1.5552099533437
"334",8,162,"heathen","List1","hung",62,6,6,1,666,666,"unrelated","hunger","hung","er",6,2,4,"opaque","vowel",58.6004,1.775249174,25.2249,1.418713841,1.251308841,"hunger","high","low","high","low","B",666,6.50128967054039,1.5015015015015
"335",8,164,"raptor","List1","van",64,6,6,1,685,685,"unrelated","vanish","van","ish",6,3,3,"opaque","vowel",56.3396,1.758454659,6.18725,0.856562752,2.052919827,"vanish","high","low","high","high","B",685,6.52941883826223,1.45985401459854
"336",8,165,"weakness","List2","help",65,6,6,1,434,434,"unrelated","helpless","help","less",8,4,4,"transparent","consonant",375.221,2.575443033,19.3351,1.308246312,1.968622428,"helpless","high","low","high","high","A",434,6.07304453410041,2.30414746543779
"337",8,166,"greatly","List2","chief",66,6,6,1,526,526,"unrelated","chiefly","chief","ly",7,2,5,"transparent","consonant",105.54,2.027512692,11.3036,1.090032203,1.860048432,"chiefly","high","low","high","high","A",526,6.26530121273771,1.90114068441065
"338",8,167,"illness","List2","strong",67,6,6,1,478,478,"unrelated","strongly","strong","ly",8,2,6,"transparent","consonant",167.948,2.227753055,42.3588,1.637077254,1.360811195,"strongly","high","low","high","low","A",478,6.16961073249146,2.09205020920502
"339",8,168,"calmness","List2","deaf",68,6,6,1,563,563,"unrelated","deafness","deaf","ness",8,4,4,"transparent","consonant",9.51884,1.021967849,2.08225,0.488867861,2.090478693,"deafness","high","low","high","high","A",563,6.33327962813969,1.77619893428064
"340",8,169,"deathlike","List2","dead",69,6,6,1,571,571,"unrelated","deadly","dead","ly",6,2,4,"transparent","consonant",190.079,2.28121296,13.6833,1.166823672,1.95506228814746,"deadly","high","low","high","high","A",571,6.34738920965601,1.75131348511384
"341",8,170,"waiflike","List2","sick",70,6,6,1,699,699,"unrelated","sickness","sick","ness",8,4,4,"transparent","consonant",70.6179,1.855021582,16.4795,1.242529006,1.492940263,"sickness","high","low","high","low","A",699,6.54965074223381,1.43061516452074
"342",8,171,"highly","List2","worth",71,6,6,1,479,479,"unrelated","worthless","worth","less",9,4,5,"transparent","consonant",99.1149,2.000498718,5.17587,0.790698146,2.530040984,"worthless","high","high","high","high","A",479,6.17170059741091,2.08768267223382
"343",8,172,"stainless","List2","thank",72,6,6,1,529,529,"unrelated","thankless","thank","less",9,4,5,"transparent","consonant",69.4875,1.848112108,0.65442,0.218645772,8.452539844,"thankless","high","high","high","high","A",529,6.2709884318583,1.89035916824197
"344",8,173,"warlike","List2","tooth",73,6,6,1,439,439,"unrelated","toothless","tooth","less",9,NA,5,"transparent","consonant",13.5643,1.163289616,1.84428,0.453972347,2.562468003,"toothless","high","high","high","high","A",439,6.08449941307517,2.27790432801822
"345",8,174,"helpless","List1","weak",74,6,6,1,661,661,"unrelated","weakness","weak","ness",8,4,4,"transparent","consonant",47.9512,1.689763343,21.8338,1.358578193,1.243773344,"weakness","high","low","high","low","B",661,6.49375383985169,1.51285930408472
"346",8,175,"chiefly","List1","great",75,6,6,1,451,451,"unrelated","greatly","great","ly",7,2,5,"transparent","consonant",639.726,2.806672348,40.3361,1.616329499,1.736448136,"greatly","high","low","high","high","B",451,6.11146733950268,2.21729490022173
"347",8,176,"strongly","List1","ill",76,6,6,1,628,628,"unrelated","illness","ill","ness",7,4,3,"transparent","consonant",56.5181,1.759804532,35.3982,1.561079907,1.127299457,"illness","high","low","high","low","B",628,6.4425401664682,1.59235668789809
"348",8,177,"deafness","List1","calm",77,6,6,1,608,608,"unrelated","calmness","calm","ness",8,4,4,"transparent","consonant",41.288,1.626217146,1.01138,0.303494127,5.358315025,"calmness","high","high","high","high","B",608,6.41017488196617,1.64473684210526
"349",8,178,"deadly","List1","death",78,6,6,1,871,871,"unrelated","deathlike","death","like",9,4,5,"transparent","consonant",233.152,2.369497872,0,0,2369497872,"deathlike","high","high","high","high","B",871,6.7696419768525,1.14810562571757
"350",8,180,"worthless","List1","high",80,6,6,1,588,588,"unrelated","highly","high","ly",6,2,4,"transparent","consonant",369.866,2.56921702,93.8796,1.977172845,1.2994397658241,"highly","high","low","high","low","B",588,6.37672694789863,1.70068027210884
"351",8,181,"thankless","List1","stain",81,6,6,1,525,525,"unrelated","stainless","stain","less",9,4,5,"transparent","consonant",7.3771,0.9230937,2.37971,0.528879437,1.7453764197957,"stainless","high","low","high","high","B",525,6.26339826259162,1.9047619047619
"352",8,182,"toothless","List1","war",82,6,6,1,543,543,"unrelated","warlike","war","like",7,4,3,"transparent","consonant",340.12,2.532907183,1.6063,0.416024404,6.088362011,"warlike","high","high","high","high","B",543,6.29710931993394,1.84162062615101
"353",8,183,"drawer","List2","tract",83,6,6,1,498,498,"unrelated","tractor","tract","or",7,2,5,"transparent","vowel",3.45058,0.648416612,7.25812,0.916881189,0.707198074,"tractor","high","low","low","low","A",498,6.21060007702465,2.00803212851406
"354",8,184,"greenish","List2","sculpt",84,6,6,1,742,742,"unrelated","sculptor","sculpt","or",8,2,6,"transparent","vowel",0,0,3.62906,0.66549281,0,"sculptor","high","low","low","low","A",742,6.60934924316738,1.34770889487871
"355",8,185,"bookish","List2","self",85,6,6,1,452,452,"unrelated","selfish","self","ish",7,3,4,"transparent","vowel",38.9083,1.601063228,12.196,1.120442307,1.428956419,"selfish","high","low","high","low","A",452,6.11368217983223,2.21238938053097
"356",8,186,"drunken","List2","fresh",86,6,6,1,503,503,"unrelated","freshen","fresh","en",7,2,5,"transparent","vowel",73.8305,1.874078647,0.475942,0.169069291,11.084677914,"freshen","high","high","high","high","A",503,6.22059017009974,1.98807157057654
"357",8,187,"foolish","List2","debt",87,6,6,1,491,491,"unrelated","debtor","debt","or",6,2,4,"transparent","vowel",26.1768,1.434198318,0.951884,0.290454004,4.937781175,"debtor","high","high","high","high","A",491,6.19644412779452,2.03665987780041
"358",8,188,"freakish","List2","pray",88,6,6,1,518,518,"unrelated","prayer","pray","er",6,2,4,"transparent","vowel",15.1707,1.20872882,20.5845,1.334141993,0.90599713181654,"prayer","high","low","low","low","A",518,6.24997524225948,1.93050193050193
"359",8,189,"flaxen","List2","profess",89,6,6,1,821,821,"unrelated","professor","profess","or",9,2,7,"transparent","vowel",0.951884,0.290454004,74.9609,1.880590102,0.154448332,"professor","high","low","low","low","A",821,6.71052310945243,1.21802679658952
"360",8,190,"hunter","List2","soft",90,6,6,1,624,624,"unrelated","soften","soft","en",6,2,4,"transparent","vowel",81.0886,1.914282849,4.04551,0.702905071,2.723387446,"soften","high","high","high","high","A",624,6.43615036836943,1.6025641025641
"361",8,191,"sailor","List2","fast",91,6,6,1,551,551,"unrelated","fasten","fast","en",6,2,4,"transparent","vowel",102.982,2.016958166,2.85565,0.586097604,3.441334939,"fasten","high","high","high","high","A",551,6.31173480915291,1.81488203266788
"362",8,192,"tractor","List1","draw",92,6,6,1,510,510,"unrelated","drawer","draw","er",6,2,4,"transparent","vowel",58.7194,1.776115436,16.0036,1.23054088,1.44336158466888,"drawer","high","low","high","low","B",510,6.23441072571837,1.96078431372549
"363",8,193,"sculptor","List1","green",93,6,6,1,566,566,"unrelated","greenish","green","ish",8,3,5,"transparent","vowel",154.027,2.190407343,2.73667,0.572484745,3.826140973,"greenish","high","high","high","high","B",566,6.33859407820318,1.76678445229682
"364",8,194,"selfish","List1","book",94,6,6,1,544,544,"unrelated","bookish","book","ish",7,3,4,"transparent","vowel",252.249,2.403547739,1.6063,0.416024404,5.777420051,"bookish","high","high","high","high","B",544,6.29894924685594,1.83823529411765
"365",8,195,"freshen","List1","drunk",95,6,6,1,585,585,"unrelated","drunken","drunk","en",7,2,5,"transparent","vowel",38.4918,1.596506929,8.21,0.96425963,1.65568160034276,"drunken","high","low","high","high","B",585,6.37161184723186,1.70940170940171
"366",8,196,"debtor","List1","fool",96,6,6,1,462,462,"unrelated","foolish","fool","ish",7,3,4,"transparent","vowel",37.4804,1.585239578,20.525,1.33294316,1.18927770094167,"foolish","high","low","high","low","B",462,6.13556489108174,2.16450216450216
"367",8,197,"prayer","List1","freak",97,6,6,1,578,578,"unrelated","freakish","freak","ish",8,3,5,"transparent","vowel",5.35435,0.803071132,0.713913,0.233988773,3.432092567,"freakish","high","high","high","high","B",578,6.35957386867238,1.73010380622837
"368",8,198,"professor","List1","flax",98,6,6,1,547,547,"unrelated","flaxen","flax","en",6,2,4,"transparent","vowel",2.20123,0.505316878,0.118986,0.048824653,10.349625376,"flaxen","high","high","high","high","B",547,6.30444880242198,1.82815356489945
"369",8,199,"soften","List1","hunt",99,6,6,1,525,525,"unrelated","hunter","hunt","er",6,2,4,"transparent","vowel",22.9642,1.379562935,11.8391,1.108534581,1.244492465,"hunter","high","low","high","low","B",525,6.26339826259162,1.9047619047619
"370",8,200,"fasten","List1","sail",100,6,6,1,629,629,"unrelated","sailor","sail","or",6,2,4,"transparent","vowel",8.21,0.96425963,5.88978,0.838205355,1.15038590853385,"sailor","high","low","high","low","B",629,6.44413125670044,1.58982511923688
"371",9,1,"breadth","List1","bread",1,6,6,1,475,475,"related","breadth","bread","th",7,2,5,"opaque","consonant",76.9836,1.89200328,4.40246,0.73259156,2.58261681,"breadth","low","high","high","high","A",475,6.16331480403464,2.10526315789474
"372",9,3,"youth","List1","you",3,6,6,1,647,647,"related","youth","you","th",5,2,3,"opaque","consonant",6334.67,3.801792548,63.4788,1.809416946,2.101114701,"youth","low","low","high","high","A",647,6.4723462945009,1.54559505409583
"373",9,4,"kindling","List2","kind",4,6,6,1,383,383,"related","kindling","kind","ling",8,4,4,"opaque","consonant",409.846,2.613679063,0.951884,0.290454004,8.998598807,"kindling","low","high","high","high","B",383,5.94803498918065,2.61096605744125
"374",9,5,"dumpling","List2","dump",5,6,6,1,598,598,"related","dumpling","dump","ling",8,4,4,"opaque","consonant",7.67457,0.938247956,0.356957,0.132566086,7.077586563,"dumpling","low","high","high","high","B",598,6.39359075395063,1.67224080267559
"375",9,6,"random","List2","ran",6,6,6,1,407,407,"related","random","ran","dom",6,3,3,"opaque","consonant",116.606,2.070429479,18.2643,1.284753233,1.61153864,"random","low","low","high","high","B",407,6.00881318544259,2.45700245700246
"376",9,7,"dearth","List2","dear",7,6,6,1,486,486,"related","dearth","dear","th",6,2,4,"opaque","consonant",119.58,2.08127528,0.951884,0.290454004,7.16559332690214,"dearth","low","high","high","high","B",486,6.18620862390049,2.05761316872428
"377",9,8,"career","List1","car",8,6,6,1,395,395,"related","career","car","eer",6,3,3,"opaque","vowel",274.916,2.440776885,57.1725,1.764717728,1.383097617,"career","low","low","high","low","A",395,5.97888576490112,2.53164556962025
"378",9,9,"ratify","List1","rat",9,6,6,1,673,673,"related","ratify","rat","ify",6,3,3,"opaque","vowel",8.68594,0.986141774,0.713913,0.233988773,4.214483273,"ratify","low","high","high","high","A",673,6.51174532964473,1.48588410104012
"379",9,11,"pillory","List1","pill",11,6,6,1,700,700,"related","pillory","pill","ory",7,3,4,"opaque","vowel",13.8023,1.170329202,0.416449,0.151200942,7.740224226,"pillory","low","high","high","high","A",700,6.5510803350434,1.42857142857143
"380",9,12,"hickory","List2","hick",12,6,6,1,416,416,"related","hickory","hick","ory",7,3,4,"opaque","vowel",1.24935,0.352057037,1.13036,0.328452999,1.071864276,"hickory","low","low","high","low","B",416,6.03068526026126,2.40384615384615
"381",9,14,"testify","List2","test",14,6,6,1,691,691,"related","testify","test","ify",7,3,4,"opaque","vowel",79.4228,1.905379189,5.23536,0.794861533,2.397120891,"testify","low","high","high","high","B",691,6.53813982376767,1.44717800289436
"382",9,15,"seedling","List1","seed",15,6,6,1,488,488,"related","seedling","seed","ling",8,4,4,"transparent","consonant",28.616,1.471526401,0.594928,0.202741082,7.258155965,"seedling","low","high","high","high","A",488,6.19031540585315,2.04918032786885
"383",9,16,"warmth","List1","warm",16,6,6,1,605,605,"related","warmth","warm","th",6,2,4,"transparent","consonant",94.177,1.978532012,24.987,1.414756146,1.398496848,"warmth","low","low","high","low","A",605,6.40522845803084,1.65289256198347
"384",9,17,"fourth","List1","four",17,6,6,1,401,401,"related","fourth","four","th",6,2,4,"transparent","consonant",319.714,2.506117918,45.274,1.665337042,1.504871298,"fourth","low","low","high","high","A",401,5.99396142730657,2.49376558603491
"385",9,19,"eleventh","List1","eleven",19,6,6,1,502,502,"related","eleventh","eleven","th",8,2,6,"transparent","consonant",40.0386,1.613192537,4.69993,0.755869522,2.134220904,"eleventh","low","low","high","high","A",502,6.21860011969173,1.99203187250996
"386",9,20,"sixth","List1","six",20,6,6,1,456,456,"related","sixth","six","th",5,2,3,"transparent","consonant",203.227,2.310113158,16.063,1.232055391,1.875007547,"sixth","low","low","high","high","A",456,6.12249280951439,2.19298245614035
"387",9,21,"duckling","List1","duck",21,6,6,1,501,501,"related","duckling","duck","ling",8,4,4,"transparent","consonant",9.8758,1.036461213,0.297464,0.113095317,9.164492672,"duckling","low","high","high","high","A",501,6.21660610108486,1.99600798403194
"388",9,22,"stardom","List1","star",22,6,6,1,456,456,"related","stardom","star","dom",7,3,4,"transparent","consonant",54.6738,1.745650865,1.13036,0.328452999,5.314766085,"stardom","low","high","high","high","A",456,6.12249280951439,2.19298245614035
"389",9,23,"manhood","List1","man",23,6,6,1,487,487,"related","manhood","man","hood",7,4,3,"transparent","consonant",1024.11,3.01077047,6.06826,0.849312516,3.5449500740138,"manhood","low","high","high","high","A",487,6.18826412308259,2.05338809034908
"390",9,25,"tenth","List2","ten",25,6,6,1,440,440,"related","tenth","ten","th",5,2,3,"transparent","consonant",219.647,2.343698027,10.5302,1.061836841,2.207211065,"tenth","low","low","high","high","B",440,6.08677472691231,2.27272727272727
"391",9,26,"freedom","List2","free",26,6,6,1,496,496,"related","freedom","free","dom",7,3,4,"transparent","consonant",209.652,2.323565587,101.673,2.011456252,1.155165857,"freedom","low","low","high","low","B",496,6.20657592672493,2.01612903225806
"392",9,27,"kingdom","List2","king",27,6,6,1,581,581,"related","kingdom","king","dom",7,3,4,"transparent","consonant",91.7378,1.967256789,28.973,1.476730214,1.332170744,"kingdom","low","low","high","low","B",581,6.36475075685191,1.72117039586919
"393",9,28,"sapling","List2","sap",28,6,6,1,525,525,"related","sapling","sap","ling",7,4,3,"transparent","consonant",2.79616,0.579344509,0.713913,0.233988773,2.475950017,"sapling","low","high","high","high","B",525,6.26339826259162,1.9047619047619
"394",9,29,"earthling","List2","earth",29,6,6,1,481,481,"related","earthling","earth","ling",9,4,5,"transparent","consonant",161.999,2.21218494,0.237971,0.092710471,23.861219690479,"earthling","low","high","high","high","B",481,6.17586727010576,2.07900207900208
"395",9,30,"growth","List2","grow",30,6,6,1,446,446,"related","growth","grow","th",6,2,4,"transparent","consonant",95.4264,1.984195953,121.841,2.089343343,0.949674432,"growth","low","low","low","low","B",446,6.10031895202006,2.24215246636771
"396",9,31,"serfdom","List2","serf",31,6,6,1,620,620,"related","serfdom","serf","dom",7,3,4,"transparent","consonant",0.356957,0.132566086,0.237971,0.092710471,1.429893335,"serfdom","low","low","high","low","B",620,6.42971947803914,1.61290322580645
"397",9,33,"cashier","List1","cash",33,6,6,1,644,644,"related","cashier","cash","ier",7,3,4,"transparent","vowel",54.3169,1.742857834,2.20123,0.505316878,3.449039418,"cashier","low","high","high","high","A",644,6.46769872610435,1.5527950310559
"398",9,34,"solidify","List1","solid",34,6,6,1,551,551,"related","solidify","solid","ify",8,3,5,"transparent","vowel",46.5233,1.67690659,0.475942,0.169069291,9.91845751622358,"solidify","low","high","high","high","A",551,6.31173480915291,1.81488203266788
"399",9,35,"fortify","List1","fort",35,6,6,1,478,478,"related","fortify","fort","ify",7,3,4,"transparent","vowel",23.7971,1.394400893,1.18986,0.340416351,4.09616308,"fortify","low","high","high","high","A",478,6.16961073249146,2.09205020920502
"400",9,36,"profiteer","List1","profit",36,6,6,1,712,712,"related","profiteer","profit","eer",9,3,6,"transparent","vowel",36.945,1.579154557,0.118986,0.048824653,32.343384492,"profiteer","low","high","high","high","A",712,6.56807791141198,1.40449438202247
"401",9,37,"directory","List1","direct",37,6,6,1,695,695,"related","directory","direct","ory",9,3,6,"transparent","vowel",94.2365,1.978803426,3.98601,0.697753145,2.835964893,"directory","low","high","high","high","A",695,6.54391184556479,1.43884892086331
"402",9,38,"armory","List1","arm",38,6,6,1,551,551,"related","armory","arm","ory",6,3,3,"transparent","vowel",111.132,2.049729568,0,0,2049729568,"armory","low","high","high","high","A",551,6.31173480915291,1.81488203266788
"403",9,39,"acidify","List1","acid",39,6,6,1,550,550,"related","acidify","acid","ify",7,3,4,"transparent","vowel",21.8933,1.359708399,0,0,1359708399,"acidify","low","high","high","high","A",550,6.30991827822652,1.81818181818182
"404",9,40,"frontier","List1","front",40,6,6,1,661,661,"related","frontier","front","ier",8,3,5,"transparent","vowel",263.077,2.421730578,13.0884,1.148861674,2.107939216,"frontier","low","low","high","high","A",661,6.49375383985169,1.51285930408472
"405",9,41,"humidify","List1","humid",41,6,6,1,435,435,"related","humidify","humid","ify",8,3,5,"transparent","vowel",3.03413,0.605749889,0.237971,0.092710471,6.533780661,"humidify","low","high","high","high","A",435,6.07534603108868,2.29885057471264
