LIST,SUBJ,Group,Trial_Order,List_Order,Target.ACC,Target.RESP,RT.1000,RT.ERR,RT,List_ID,Trigger,ITEM_ID,PRIME,TARGET,prod,rel,transparency,init_sound1,8,1,35,35,1,6,618,618,618,1,1,1,breadth,bread,Low,Related,Opaque,Consonant1,8,1,82,82,1,6,645,645,645,2,2,2,hearth,hear,Low,Related,Opaque,Consonant1,8,1,144,144,1,6,531,531,531,3,3,3,youth,you,Low,Related,Opaque,Consonant2,8,1,326,126,1,6,406,406,406,4,4,4,kindling,kind,Low,Related,Opaque,Consonant2,8,1,276,76,1,6,835,835,835,5,5,5,dumpling,dump,Low,Related,Opaque,Consonant2,8,1,308,108,1,6,483,483,483,6,6,6,random,ran,Low,Related,Opaque,Consonant2,8,1,338,138,1,6,545,545,545,7,7,7,dearth,dear,Low,Related,Opaque,Consonant1,8,1,119,119,1,6,694,694,694,8,8,8,career,car,Low,Related,Opaque,Vowel1,8,1,31,31,1,6,584,584,584,9,9,9,ratify,rat,Low,Related,Opaque,Vowel1,8,1,79,79,1,6,900,900,900,10,10,10,factory,fact,Low,Related,Opaque,Vowel1,8,1,161,161,1,6,720,720,720,11,11,11,pillory,pill,Low,Related,Opaque,Vowel2,8,1,398,198,1,6,448,448,448,12,12,12,hickory,hick,Low,Related,Opaque,Vowel2,8,1,293,93,1,6,647,647,647,13,13,13,auditory,audit,Low,Related,Opaque,Vowel2,8,1,366,166,1,6,481,481,481,14,14,14,testify,test,Low,Related,Opaque,Vowel1,8,1,142,142,1,6,467,467,467,15,15,15,seedling,seed,Low,Related,Transparent,Consonant1,8,1,46,46,1,6,492,492,492,16,16,16,warmth,warm,Low,Related,Transparent,Consonant1,8,1,22,22,1,6,638,638,638,17,17,17,fourth,four,Low,Related,Transparent,Consonant1,8,1,83,83,1,6,445,445,445,18,18,18,boyhood,boy,Low,Related,Transparent,Consonant1,8,1,88,88,1,6,574,574,574,19,19,19,eleventh,eleven,Low,Related,Transparent,Consonant1,8,1,54,54,1,6,494,494,494,20,20,20,sixth,six,Low,Related,Transparent,Consonant1,8,1,100,100,1,6,465,465,465,21,21,21,duckling,duck,Low,Related,Transparent,Consonant1,8,1,90,90,1,6,439,439,439,22,22,22,stardom,star,Low,Related,Transparent,Consonant1,8,1,102,102,1,6,505,505,505,23,23,23,manhood,man,Low,Related,Transparent,Consonant2,8,1,215,15,1,6,628,628,628,24,24,24,boredom,bore,Low,Related,Transparent,Consonant2,8,1,324,124,1,6,470,470,470,25,25,25,tenth,ten,Low,Related,Transparent,Consonant2,8,1,309,109,1,6,499,499,499,26,26,26,freedom,free,Low,Related,Transparent,Consonant2,8,1,386,186,1,6,741,741,741,27,27,27,kingdom,king,Low,Related,Transparent,Consonant2,8,1,307,107,1,6,587,587,587,28,28,28,sapling,sap,Low,Related,Transparent,Consonant2,8,1,305,105,1,6,474,474,474,29,29,29,earthling,earth,Low,Related,Transparent,Consonant2,8,1,354,154,1,6,501,501,501,30,30,30,growth,grow,Low,Related,Transparent,Consonant2,8,1,318,118,1,6,605,605,605,31,31,31,serfdom,serf,Low,Related,Transparent,Consonant2,8,1,320,120,1,6,598,598,598,32,32,32,health,heal,Low,Related,Transparent,Consonant1,8,1,24,24,1,6,631,631,631,33,33,33,cashier,cash,Low,Related,Transparent,Vowel1,8,1,112,112,1,6,484,484,484,34,34,34,solidify,solid,Low,Related,Transparent,Vowel1,8,1,61,61,1,6,856,856,856,35,35,35,fortify,fort,Low,Related,Transparent,Vowel1,8,1,127,127,1,6,607,607,607,36,36,36,profiteer,profit,Low,Related,Transparent,Vowel1,8,1,13,13,1,6,652,652,652,37,37,37,directory,direct,Low,Related,Transparent,Vowel1,8,1,164,164,1,6,616,616,616,38,38,38,armory,arm,Low,Related,Transparent,Vowel1,8,1,4,4,1,6,642,642,642,39,39,39,acidify,acid,Low,Related,Transparent,Vowel1,8,1,106,106,1,6,667,667,667,40,40,40,frontier,front,Low,Related,Transparent,Vowel1,8,1,58,58,1,6,607,607,607,41,41,41,humidify,humid,Low,Related,Transparent,Vowel2,8,1,259,59,1,6,663,663,663,42,42,42,classify,class,Low,Related,Transparent,Vowel2,8,1,250,50,1,6,733,733,733,43,43,43,hotelier,hotel,Low,Related,Transparent,Vowel2,8,1,328,128,1,6,511,511,511,44,44,44,marketeer,market,Low,Related,Transparent,Vowel2,8,1,322,122,1,6,462,462,462,45,45,45,justify,just,Low,Related,Transparent,Vowel2,8,1,238,38,1,6,481,481,481,46,46,46,courtier,court,Low,Related,Transparent,Vowel2,8,1,241,41,1,6,834,834,834,47,47,47,nullify,null,Low,Related,Transparent,Vowel2,8,1,347,147,1,6,484,484,484,48,48,48,racketeer,racket,Low,Related,Transparent,Vowel2,8,1,302,102,1,6,577,577,577,49,49,49,musketeer,musket,Low,Related,Transparent,Vowel2,8,1,262,62,1,6,696,696,696,50,50,50,clothier,cloth,Low,Related,Transparent,Vowel1,8,1,167,167,1,6,729,729,729,51,51,51,witness,wit,High,Related,Opaque,Consonant2,8,1,317,117,1,6,669,669,669,52,52,52,imply,imp,High,Related,Opaque,Consonant1,8,1,110,110,1,6,516,516,516,53,53,53,listen,list,High,Related,Opaque,Vowel1,8,1,63,63,0,5,599.557,,720,54,54,54,pastor,past,High,Related,Opaque,Vowel1,8,1,71,71,1,6,634,634,634,55,55,55,banish,ban,High,Related,Opaque,Vowel1,8,1,47,47,1,6,599.557,1044,1044,56,56,56,heathen,heath,High,Related,Opaque,Vowel1,8,1,55,55,1,6,655,655,655,57,57,57,mister,mist,High,Related,Opaque,Vowel1,8,1,5,5,1,6,930,930,930,58,58,58,raptor,rapt,High,Related,Opaque,Vowel2,8,1,381,181,1,6,611,611,611,59,59,59,flower,flow,High,Related,Opaque,Vowel2,8,1,218,18,1,6,589,589,589,60,60,60,traitor,trait,High,Related,Opaque,Vowel2,8,1,315,115,1,6,556,556,556,61,61,61,limber,limb,High,Related,Opaque,Vowel2,8,1,358,158,1,6,606,606,606,62,62,62,hunger,hung,High,Related,Opaque,Vowel2,8,1,303,103,0,5,599.557,,889,63,63,63,pollen,poll,High,Related,Opaque,Vowel2,8,1,252,52,1,6,589,589,589,64,64,64,vanish,van,High,Related,Opaque,Vowel1,8,1,33,33,1,6,497,497,497,65,65,65,helpless,help,High,Related,Transparent,Consonant1,8,1,172,172,1,6,562,562,562,66,66,66,chiefly,chief,High,Related,Transparent,Consonant1,8,1,160,160,1,6,543,543,543,67,67,67,strongly,strong,High,Related,Transparent,Consonant1,8,1,128,128,1,6,407,407,407,68,68,68,deafness,deaf,High,Related,Transparent,Consonant1,8,1,166,166,1,6,497,497,497,69,69,69,deadly,dead,High,Related,Transparent,Consonant1,8,1,23,23,1,6,671,671,671,70,70,70,sickness,sick,High,Related,Transparent,Consonant1,8,1,117,117,1,6,477,477,477,71,71,71,worthless,worth,High,Related,Transparent,Consonant1,8,1,25,25,1,6,791,791,791,72,72,72,thankless,thank,High,Related,Transparent,Consonant1,8,1,168,168,1,6,610,610,610,73,73,73,toothless,tooth,High,Related,Transparent,Consonant2,8,1,396,196,1,6,663,663,663,74,74,74,weakness,weak,High,Related,Transparent,Consonant2,8,1,208,8,1,6,475,475,475,75,75,75,greatly,great,High,Related,Transparent,Consonant2,8,1,363,163,1,6,464,464,464,76,76,76,illness,ill,High,Related,Transparent,Consonant2,8,1,356,156,1,6,382,382,382,77,77,77,calmness,calm,High,Related,Transparent,Consonant2,8,1,372,172,1,6,466,466,466,78,78,78,deathlike,death,High,Related,Transparent,Consonant2,8,1,370,170,0,5,599.557,,505,79,79,79,waiflike,waif,High,Related,Transparent,Consonant2,8,1,353,153,1,6,381,381,381,80,80,80,highly,high,High,Related,Transparent,Consonant2,8,1,294,94,1,6,520,520,520,81,81,81,stainless,stain,High,Related,Transparent,Consonant2,8,1,325,125,1,6,390,390,390,82,82,82,warlike,war,High,Related,Transparent,Consonant1,8,1,73,73,0,5,599.557,,586,83,83,83,tractor,tract,High,Related,Transparent,Vowel1,8,1,34,34,1,6,689,689,689,84,84,84,sculptor,sculpt,High,Related,Transparent,Vowel1,8,1,48,48,1,6,557,557,557,85,85,85,selfish,self,High,Related,Transparent,Vowel1,8,1,186,186,1,6,477,477,477,86,86,86,freshen,fresh,High,Related,Transparent,Vowel1,8,1,185,185,1,6,653,653,653,87,87,87,debtor,debt,High,Related,Transparent,Vowel1,8,1,153,153,1,6,486,486,486,88,88,88,prayer,pray,High,Related,Transparent,Vowel1,8,1,189,189,0,5,599.557,,830,89,89,89,professor,profess,High,Related,Transparent,Vowel1,8,1,32,32,1,6,577,577,577,90,90,90,soften,soft,High,Related,Transparent,Vowel1,8,1,26,26,1,6,704,704,704,91,91,91,fasten,fast,High,Related,Transparent,Vowel2,8,1,254,54,1,6,613,613,613,92,92,92,drawer,draw,High,Related,Transparent,Vowel2,8,1,270,70,1,6,561,561,561,93,93,93,greenish,green,High,Related,Transparent,Vowel2,8,1,281,81,1,6,404,404,404,94,94,94,bookish,book,High,Related,Transparent,Vowel2,8,1,264,64,1,6,576,576,576,95,95,95,drunken,drunk,High,Related,Transparent,Vowel2,8,1,263,63,1,6,488,488,488,96,96,96,foolish,fool,High,Related,Transparent,Vowel2,8,1,336,136,1,6,442,442,442,97,97,97,freakish,freak,High,Related,Transparent,Vowel2,8,1,313,113,1,6,483,483,483,98,98,98,flaxen,flax,High,Related,Transparent,Vowel2,8,1,284,84,1,6,596,596,596,99,99,99,hunter,hunt,High,Related,Transparent,Vowel2,8,1,368,168,1,6,576,576,576,100,100,100,sailor,sail,High,Related,Transparent,Vowel2,8,1,209,9,1,6,490,490,490,1,101,101,kindling,bread,Low,Unrelated,Opaque,Consonant2,8,1,247,47,1,6,476,476,476,2,102,102,dumpling,hear,Low,Unrelated,Opaque,Consonant2,8,1,279,79,1,6,484,484,484,3,103,103,random,you,Low,Unrelated,Opaque,Consonant1,8,1,74,74,1,6,523,523,523,4,104,104,breadth,kind,Low,Unrelated,Opaque,Consonant1,8,1,141,141,1,6,594,594,594,5,105,105,hearth,dump,Low,Unrelated,Opaque,Consonant1,8,1,50,50,1,6,597,597,597,6,106,106,youth,ran,Low,Unrelated,Opaque,Consonant1,8,1,96,96,1,6,504,504,504,7,107,107,pillory,dear,Low,Unrelated,Opaque,Consonant2,8,1,369,169,1,6,593,593,593,8,108,108,hickory,car,Low,Unrelated,Opaque,Vowel2,8,1,331,131,1,6,440,440,440,9,109,109,auditory,rat,Low,Unrelated,Opaque,Vowel2,8,1,282,82,1,6,636,636,636,10,110,110,testify,fact,Low,Unrelated,Opaque,Vowel2,8,1,249,49,1,6,517,517,517,11,111,111,dearth,pill,Low,Unrelated,Opaque,Vowel1,8,1,158,158,1,6,887,887,887,12,112,112,career,hick,Low,Unrelated,Opaque,Vowel1,8,1,171,171,1,6,666,666,666,13,113,113,ratify,audit,Low,Unrelated,Opaque,Vowel1,8,1,81,81,1,6,605,605,605,14,114,114,factory,test,Low,Unrelated,Opaque,Vowel2,8,1,256,56,1,6,478,478,478,15,115,115,boredom,seed,Low,Unrelated,Transparent,Consonant2,8,1,234,34,1,6,465,465,465,16,116,116,tenth,warm,Low,Unrelated,Transparent,Consonant2,8,1,217,17,1,6,597,597,597,17,117,117,freedom,four,Low,Unrelated,Transparent,Consonant2,8,1,211,11,1,6,547,547,547,18,118,118,kingdom,boy,Low,Unrelated,Transparent,Consonant2,8,1,312,112,1,6,491,491,491,19,119,119,sapling,eleven,Low,Unrelated,Transparent,Consonant2,8,1,397,197,1,6,527,527,527,20,120,120,earthling,six,Low,Unrelated,Transparent,Consonant2,8,1,392,192,1,6,623,623,623,21,121,121,growth,duck,Low,Unrelated,Transparent,Consonant2,8,1,299,99,1,6,560,560,560,22,122,122,serfdom,star,Low,Unrelated,Transparent,Consonant2,8,1,361,161,1,6,391,391,391,23,123,123,health,man,Low,Unrelated,Transparent,Consonant1,8,1,184,184,1,6,501,501,501,24,124,124,seedling,bore,Low,Unrelated,Transparent,Consonant1,8,1,39,39,1,6,555,555,555,25,125,125,warmth,ten,Low,Unrelated,Transparent,Consonant1,8,1,125,125,1,6,687,687,687,26,126,126,fourth,free,Low,Unrelated,Transparent,Consonant1,8,1,126,126,1,6,688,688,688,27,127,127,boyhood,king,Low,Unrelated,Transparent,Consonant1,8,1,12,12,1,6,916,916,916,28,128,128,eleventh,sap,Low,Unrelated,Transparent,Consonant1,8,1,7,7,1,6,619,619,619,29,129,129,sixth,earth,Low,Unrelated,Transparent,Consonant1,8,1,37,37,1,6,522,522,522,30,130,130,duckling,grow,Low,Unrelated,Transparent,Consonant1,8,1,72,72,0,5,599.557,,786,31,131,131,stardom,serf,Low,Unrelated,Transparent,Consonant1,8,1,89,89,1,6,486,486,486,32,132,132,manhood,heal,Low,Unrelated,Transparent,Consonant2,8,1,244,44,1,6,539,539,539,33,133,133,classify,cash,Low,Unrelated,Transparent,Vowel2,8,1,343,143,1,6,539,539,539,34,134,134,hotelier,solid,Low,Unrelated,Transparent,Vowel2,8,1,228,28,1,6,599,599,599,35,135,135,marketeer,fort,Low,Unrelated,Transparent,Vowel2,8,1,257,57,1,6,526,526,526,36,136,136,justify,profit,Low,Unrelated,Transparent,Vowel2,8,1,346,146,1,6,892,892,892,37,137,137,courtier,direct,Low,Unrelated,Transparent,Vowel2,8,1,235,35,1,6,569,569,569,38,138,138,nullify,arm,Low,Unrelated,Transparent,Vowel2,8,1,243,43,1,6,771,771,771,39,139,139,racketeer,acid,Low,Unrelated,Transparent,Vowel2,8,1,327,127,1,6,455,455,455,40,140,140,musketeer,front,Low,Unrelated,Transparent,Vowel2,8,1,301,101,1,6,521,521,521,41,141,141,clothier,humid,Low,Unrelated,Transparent,Vowel1,8,1,42,42,1,6,595,595,595,42,142,142,cashier,class,Low,Unrelated,Transparent,Vowel1,8,1,108,108,1,6,595,595,595,43,143,143,solidify,hotel,Low,Unrelated,Transparent,Vowel1,8,1,176,176,1,6,467,467,467,44,144,144,fortify,market,Low,Unrelated,Transparent,Vowel1,8,1,180,180,1,6,572,572,572,45,145,145,profiteer,just,Low,Unrelated,Transparent,Vowel1,8,1,163,163,1,6,704,704,704,46,146,146,directory,court,Low,Unrelated,Transparent,Vowel1,8,1,18,18,0,5,599.557,,885,47,147,147,armory,null,Low,Unrelated,Transparent,Vowel1,8,1,191,191,1,6,495,495,495,48,148,148,acidify,racket,Low,Unrelated,Transparent,Vowel1,8,1,10,10,0,5,599.557,,1044,49,149,149,frontier,musket,Low,Unrelated,Transparent,Vowel1,8,1,138,138,1,6,626,626,626,50,150,150,humidify,cloth,Low,Unrelated,Transparent,Vowel2,8,1,345,145,1,6,547,547,547,51,151,151,imply,wit,High,Unrelated,Opaque,Consonant1,8,1,113,113,1,6,908,908,908,52,152,152,witness,imp,High,Unrelated,Opaque,Consonant2,8,1,351,151,1,6,565,565,565,53,153,153,flower,list,High,Unrelated,Opaque,Vowel2,8,1,223,23,1,6,487,487,487,54,154,154,traitor,past,High,Unrelated,Opaque,Vowel2,8,1,297,97,1,6,599,599,599,55,155,155,limber,ban,High,Unrelated,Opaque,Vowel2,8,1,310,110,1,6,490,490,490,56,156,156,hunger,heath,High,Unrelated,Opaque,Vowel2,8,1,214,14,1,6,556,556,556,57,157,157,pollen,mist,High,Unrelated,Opaque,Vowel2,8,1,285,85,1,6,549,549,549,58,158,158,vanish,rapt,High,Unrelated,Opaque,Vowel1,8,1,69,69,1,6,626,626,626,59,159,159,listen,flow,High,Unrelated,Opaque,Vowel1,8,1,80,80,1,6,668,668,668,60,160,160,pastor,trait,High,Unrelated,Opaque,Vowel1,8,1,107,107,1,6,643,643,643,61,161,161,banish,limb,High,Unrelated,Opaque,Vowel1,8,1,137,137,1,6,666,666,666,62,162,162,heathen,hung,High,Unrelated,Opaque,Vowel1,8,1,1,1,1,6,599.557,1353,1353,63,163,163,mister,poll,High,Unrelated,Opaque,Vowel1,8,1,84,84,1,6,685,685,685,64,164,164,raptor,van,High,Unrelated,Opaque,Vowel2,8,1,237,37,1,6,434,434,434,65,165,165,weakness,help,High,Unrelated,Transparent,Consonant2,8,1,290,90,1,6,526,526,526,66,166,166,greatly,chief,High,Unrelated,Transparent,Consonant2,8,1,225,25,1,6,478,478,478,67,167,167,illness,strong,High,Unrelated,Transparent,Consonant2,8,1,242,42,1,6,563,563,563,68,168,168,calmness,deaf,High,Unrelated,Transparent,Consonant2,8,1,344,144,1,6,571,571,571,69,169,169,deathlike,dead,High,Unrelated,Transparent,Consonant2,8,1,210,10,1,6,699,699,699,70,170,170,waiflike,sick,High,Unrelated,Transparent,Consonant2,8,1,360,160,1,6,479,479,479,71,171,171,highly,worth,High,Unrelated,Transparent,Consonant2,8,1,333,133,1,6,529,529,529,72,172,172,stainless,thank,High,Unrelated,Transparent,Consonant2,8,1,329,129,1,6,439,439,439,73,173,173,warlike,tooth,High,Unrelated,Transparent,Consonant1,8,1,16,16,1,6,661,661,661,74,174,174,helpless,weak,High,Unrelated,Transparent,Consonant1,8,1,174,174,1,6,451,451,451,75,175,175,chiefly,great,High,Unrelated,Transparent,Consonant1,8,1,78,78,1,6,628,628,628,76,176,176,strongly,ill,High,Unrelated,Transparent,Consonant1,8,1,129,129,1,6,608,608,608,77,177,177,deafness,calm,High,Unrelated,Transparent,Consonant1,8,1,124,124,1,6,871,871,871,78,178,178,deadly,death,High,Unrelated,Transparent,Consonant1,8,1,188,188,0,5,599.557,,1206,79,179,179,sickness,waif,High,Unrelated,Transparent,Consonant1,8,1,145,145,1,6,588,588,588,80,180,180,worthless,high,High,Unrelated,Transparent,Consonant1,8,1,183,183,1,6,525,525,525,81,181,181,thankless,stain,High,Unrelated,Transparent,Consonant1,8,1,28,28,1,6,543,543,543,82,182,182,toothless,war,High,Unrelated,Transparent,Consonant2,8,1,304,104,1,6,498,498,498,83,183,183,drawer,tract,High,Unrelated,Transparent,Vowel2,8,1,255,55,1,6,742,742,742,84,184,184,greenish,sculpt,High,Unrelated,Transparent,Vowel2,8,1,314,114,1,6,452,452,452,85,185,185,bookish,self,High,Unrelated,Transparent,Vowel2,8,1,226,26,1,6,503,503,503,86,186,186,drunken,fresh,High,Unrelated,Transparent,Vowel2,8,1,377,177,1,6,491,491,491,87,187,187,foolish,debt,High,Unrelated,Transparent,Vowel2,8,1,321,121,1,6,518,518,518,88,188,188,freakish,pray,High,Unrelated,Transparent,Vowel2,8,1,350,150,1,6,821,821,821,89,189,189,flaxen,profess,High,Unrelated,Transparent,Vowel2,8,1,231,31,1,6,624,624,624,90,190,190,hunter,soft,High,Unrelated,Transparent,Vowel2,8,1,395,195,1,6,551,551,551,91,191,191,sailor,fast,High,Unrelated,Transparent,Vowel1,8,1,154,154,1,6,510,510,510,92,192,192,tractor,draw,High,Unrelated,Transparent,Vowel1,8,1,87,87,1,6,566,566,566,93,193,193,sculptor,green,High,Unrelated,Transparent,Vowel1,8,1,199,199,1,6,544,544,544,94,194,194,selfish,book,High,Unrelated,Transparent,Vowel1,8,1,200,200,1,6,585,585,585,95,195,195,freshen,drunk,High,Unrelated,Transparent,Vowel1,8,1,190,190,1,6,462,462,462,96,196,196,debtor,fool,High,Unrelated,Transparent,Vowel1,8,1,6,6,1,6,578,578,578,97,197,197,prayer,freak,High,Unrelated,Transparent,Vowel1,8,1,175,175,1,6,547,547,547,98,198,198,professor,flax,High,Unrelated,Transparent,Vowel1,8,1,116,116,1,6,525,525,525,99,199,199,soften,hunt,High,Unrelated,Transparent,Vowel1,8,1,149,149,1,6,629,629,629,100,200,200,fasten,sail,High,Unrelated,Transparent,Vowel2,10,1,270,70,1,6,560,560,560,1,1,1,breadth,bread,Low,Related,Opaque,Consonant2,10,1,323,123,1,6,525,525,525,2,2,2,hearth,hear,Low,Related,Opaque,Consonant2,10,1,291,91,1,6,541,541,541,3,3,3,youth,you,Low,Related,Opaque,Consonant1,10,1,161,161,1,6,874,874,874,4,4,4,kindling,kind,Low,Related,Opaque,Consonant1,10,1,15,15,1,6,525,525,525,5,5,5,dumpling,dump,Low,Related,Opaque,Consonant1,10,1,36,36,0,5,599.557,,715,6,6,6,random,ran,Low,Related,Opaque,Consonant1,10,1,42,42,1,6,621,621,621,7,7,7,dearth,dear,Low,Related,Opaque,Consonant2,10,1,259,59,1,6,638,638,638,8,8,8,career,car,Low,Related,Opaque,Vowel2,10,1,384,184,0,5,599.557,,540,9,9,9,ratify,rat,Low,Related,Opaque,Vowel2,10,1,269,69,1,6,680,680,680,10,10,10,factory,fact,Low,Related,Opaque,Vowel2,10,1,381,181,1,6,659,659,659,11,11,11,pillory,pill,Low,Related,Opaque,Vowel1,10,1,57,57,1,6,489,489,489,12,12,12,hickory,hick,Low,Related,Opaque,Vowel1,10,1,75,75,0,5,599.557,,465,13,13,13,auditory,audit,Low,Related,Opaque,Vowel1,10,1,110,110,1,6,750,750,750,14,14,14,testify,test,Low,Related,Opaque,Vowel2,10,1,267,67,1,6,367,367,367,15,15,15,seedling,seed,Low,Related,Transparent,Consonant2,10,1,215,15,1,6,507,507,507,16,16,16,warmth,warm,Low,Related,Transparent,Consonant2,10,1,315,115,1,6,483,483,483,17,17,17,fourth,four,Low,Related,Transparent,Consonant2,10,1,339,139,1,6,472,472,472,18,18,18,boyhood,boy,Low,Related,Transparent,Consonant2,10,1,397,197,1,6,550,550,550,19,19,19,eleventh,eleven,Low,Related,Transparent,Consonant2,10,1,261,61,1,6,509,509,509,20,20,20,sixth,six,Low,Related,Transparent,Consonant2,10,1,396,196,1,6,446,446,446,21,21,21,duckling,duck,Low,Related,Transparent,Consonant2,10,1,303,103,1,6,568,568,568,22,22,22,stardom,star,Low,Related,Transparent,Consonant2,10,1,392,192,1,6,557,557,557,23,23,23,manhood,man,Low,Related,Transparent,Consonant1,10,1,131,131,1,6,599.557,1132,1132,24,24,24,boredom,bore,Low,Related,Transparent,Consonant1,10,1,64,64,1,6,600,600,600,25,25,25,tenth,ten,Low,Related,Transparent,Consonant1,10,1,73,73,1,6,568,568,568,26,26,26,freedom,free,Low,Related,Transparent,Consonant1,10,1,121,121,1,6,655,655,655,27,27,27,kingdom,king,Low,Related,Transparent,Consonant1,10,1,170,170,1,6,850,850,850,28,28,28,sapling,sap,Low,Related,Transparent,Consonant1,10,1,18,18,1,6,433,433,433,29,29,29,earthling,earth,Low,Related,Transparent,Consonant1,10,1,8,8,1,6,469,469,469,30,30,30,growth,grow,Low,Related,Transparent,Consonant1,10,1,25,25,0,5,599.557,,625,31,31,31,serfdom,serf,Low,Related,Transparent,Consonant1,10,1,189,189,1,6,551,551,551,32,32,32,health,heal,Low,Related,Transparent,Consonant2,10,1,249,49,1,6,419,419,419,33,33,33,cashier,cash,Low,Related,Transparent,Vowel2,10,1,245,45,1,6,529,529,529,34,34,34,solidify,solid,Low,Related,Transparent,Vowel2,10,1,332,132,1,6,495,495,495,35,35,35,fortify,fort,Low,Related,Transparent,Vowel2,10,1,376,176,0,5,599.557,,665,36,36,36,profiteer,profit,Low,Related,Transparent,Vowel2,10,1,312,112,1,6,562,562,562,37,37,37,directory,direct,Low,Related,Transparent,Vowel2,10,1,207,7,1,6,528,528,528,38,38,38,armory,arm,Low,Related,Transparent,Vowel2,10,1,379,179,1,6,522,522,522,39,39,39,acidify,acid,Low,Related,Transparent,Vowel2,10,1,255,55,1,6,652,652,652,40,40,40,frontier,front,Low,Related,Transparent,Vowel2,10,1,389,189,1,6,524,524,524,41,41,41,humidify,humid,Low,Related,Transparent,Vowel1,10,1,184,184,1,6,529,529,529,42,42,42,classify,class,Low,Related,Transparent,Vowel1,10,1,116,116,1,6,641,641,641,43,43,43,hotelier,hotel,Low,Related,Transparent,Vowel1,10,1,7,7,1,6,505,505,505,44,44,44,marketeer,market,Low,Related,Transparent,Vowel1,10,1,103,103,1,6,470,470,470,45,45,45,justify,just,Low,Related,Transparent,Vowel1,10,1,90,90,1,6,644,644,644,46,46,46,courtier,court,Low,Related,Transparent,Vowel1,10,1,72,72,0,5,599.557,,604,47,47,47,nullify,null,Low,Related,Transparent,Vowel1,10,1,149,149,1,6,548,548,548,48,48,48,racketeer,racket,Low,Related,Transparent,Vowel1,10,1,20,20,1,6,642,642,642,49,49,49,musketeer,musket,Low,Related,Transparent,Vowel1,10,1,163,163,1,6,811,811,811,50,50,50,clothier,cloth,Low,Related,Transparent,Vowel2,10,1,224,24,1,6,804,804,804,51,51,51,witness,wit,High,Related,Opaque,Consonant1,10,1,70,70,1,6,763,763,763,52,52,52,imply,imp,High,Related,Opaque,Consonant2,10,1,266,66,0,5,599.557,,607,53,53,53,listen,list,High,Related,Opaque,Vowel2,10,1,325,125,0,5,599.557,,541,54,54,54,pastor,past,High,Related,Opaque,Vowel2,10,1,223,23,1,6,469,469,469,55,55,55,banish,ban,High,Related,Opaque,Vowel2,10,1,363,163,1,6,518,518,518,56,56,56,heathen,heath,High,Related,Opaque,Vowel2,10,1,276,76,1,6,674,674,674,57,57,57,mister,mist,High,Related,Opaque,Vowel2,10,1,212,12,0,5,599.557,,490,58,58,58,raptor,rapt,High,Related,Opaque,Vowel1,10,1,61,61,1,6,482,482,482,59,59,59,flower,flow,High,Related,Opaque,Vowel1,10,1,62,62,0,5,599.557,,630,60,60,60,traitor,trait,High,Related,Opaque,Vowel1,10,1,107,107,1,6,824,824,824,61,61,61,limber,limb,High,Related,Opaque,Vowel1,10,1,58,58,1,6,725,725,725,62,62,62,hunger,hung,High,Related,Opaque,Vowel1,10,1,1,1,1,6,957,957,957,63,63,63,pollen,poll,High,Related,Opaque,Vowel1,10,1,113,113,1,6,563,563,563,64,64,64,vanish,van,High,Related,Opaque,Vowel2,10,1,209,9,1,6,489,489,489,65,65,65,helpless,help,High,Related,Transparent,Consonant2,10,1,265,65,1,6,422,422,422,66,66,66,chiefly,chief,High,Related,Transparent,Consonant2,10,1,272,72,1,6,552,552,552,67,67,67,strongly,strong,High,Related,Transparent,Consonant2,10,1,378,178,1,6,410,410,410,68,68,68,deafness,deaf,High,Related,Transparent,Consonant2,10,1,281,81,1,6,522,522,522,69,69,69,deadly,dead,High,Related,Transparent,Consonant2,10,1,271,71,1,6,496,496,496,70,70,70,sickness,sick,High,Related,Transparent,Consonant2,10,1,287,87,1,6,476,476,476,71,71,71,worthless,worth,High,Related,Transparent,Consonant2,10,1,297,97,1,6,567,567,567,72,72,72,thankless,thank,High,Related,Transparent,Consonant2,10,1,251,51,1,6,603,603,603,73,73,73,toothless,tooth,High,Related,Transparent,Consonant1,10,1,34,34,1,6,562,562,562,74,74,74,weakness,weak,High,Related,Transparent,Consonant1,10,1,180,180,1,6,503,503,503,75,75,75,greatly,great,High,Related,Transparent,Consonant1,10,1,43,43,1,6,642,642,642,76,76,76,illness,ill,High,Related,Transparent,Consonant1,10,1,179,179,1,6,579,579,579,77,77,77,calmness,calm,High,Related,Transparent,Consonant1,10,1,152,152,1,6,514,514,514,78,78,78,deathlike,death,High,Related,Transparent,Consonant1,10,1,135,135,1,6,599.557,1086,1086,79,79,79,waiflike,waif,High,Related,Transparent,Consonant1,10,1,83,83,1,6,564,564,564,80,80,80,highly,high,High,Related,Transparent,Consonant1,10,1,186,186,1,6,497,497,497,81,81,81,stainless,stain,High,Related,Transparent,Consonant1,10,1,105,105,1,6,767,767,767,82,82,82,warlike,war,High,Related,Transparent,Consonant2,10,1,242,42,0,5,599.557,,897,83,83,83,tractor,tract,High,Related,Transparent,Vowel2,10,1,205,5,0,5,599.557,,561,84,84,84,sculptor,sculpt,High,Related,Transparent,Vowel2,10,1,329,129,1,6,446,446,446,85,85,85,selfish,self,High,Related,Transparent,Vowel2,10,1,318,118,1,6,531,531,531,86,86,86,freshen,fresh,High,Related,Transparent,Vowel2,10,1,343,143,1,6,753,753,753,87,87,87,debtor,debt,High,Related,Transparent,Vowel2,10,1,308,108,1,6,553,553,553,88,88,88,prayer,pray,High,Related,Transparent,Vowel2,10,1,219,19,1,6,780,780,780,89,89,89,professor,profess,High,Related,Transparent,Vowel2,10,1,294,94,1,6,598,598,598,90,90,90,soften,soft,High,Related,Transparent,Vowel2,10,1,286,86,1,6,532,532,532,91,91,91,fasten,fast,High,Related,Transparent,Vowel1,10,1,178,178,1,6,510,510,510,92,92,92,drawer,draw,High,Related,Transparent,Vowel1,10,1,5,5,1,6,568,568,568,93,93,93,greenish,green,High,Related,Transparent,Vowel1,10,1,3,3,1,6,446,446,446,94,94,94,bookish,book,High,Related,Transparent,Vowel1,10,1,191,191,1,6,632,632,632,95,95,95,drunken,drunk,High,Related,Transparent,Vowel1,10,1,175,175,1,6,537,537,537,96,96,96,foolish,fool,High,Related,Transparent,Vowel1,10,1,52,52,1,6,514,514,514,97,97,97,freakish,freak,High,Related,Transparent,Vowel1,10,1,196,196,0,5,599.557,,495,98,98,98,flaxen,flax,High,Related,Transparent,Vowel1,10,1,17,17,1,6,509,509,509,99,99,99,hunter,hunt,High,Related,Transparent,Vowel1,10,1,183,183,1,6,629,629,629,100,100,100,sailor,sail,High,Related,Transparent,Vowel1,10,1,176,176,1,6,565,565,565,1,101,101,kindling,bread,Low,Unrelated,Opaque,Consonant1,10,1,84,84,1,6,489,489,489,2,102,102,dumpling,hear,Low,Unrelated,Opaque,Consonant1,10,1,132,132,1,6,784,784,784,3,103,103,random,you,Low,Unrelated,Opaque,Consonant2,10,1,334,134,1,6,567,567,567,4,104,104,breadth,kind,Low,Unrelated,Opaque,Consonant2,10,1,393,193,1,6,509,509,509,5,105,105,hearth,dump,Low,Unrelated,Opaque,Consonant2,10,1,357,157,1,6,637,637,637,6,106,106,youth,ran,Low,Unrelated,Opaque,Consonant2,10,1,218,18,1,6,483,483,483,7,107,107,pillory,dear,Low,Unrelated,Opaque,Consonant1,10,1,19,19,1,6,502,502,502,8,108,108,hickory,car,Low,Unrelated,Opaque,Vowel1,10,1,63,63,1,6,507,507,507,9,109,109,auditory,rat,Low,Unrelated,Opaque,Vowel1,10,1,48,48,1,6,576,576,576,10,110,110,testify,fact,Low,Unrelated,Opaque,Vowel1,10,1,88,88,1,6,643,643,643,11,111,111,dearth,pill,Low,Unrelated,Opaque,Vowel2,10,1,349,149,1,6,587,587,587,12,112,112,career,hick,Low,Unrelated,Opaque,Vowel2,10,1,250,50,0,5,599.557,,571,13,113,113,ratify,audit,Low,Unrelated,Opaque,Vowel2,10,1,310,110,1,6,650,650,650,14,114,114,factory,test,Low,Unrelated,Opaque,Vowel1,10,1,195,195,1,6,634,634,634,15,115,115,boredom,seed,Low,Unrelated,Transparent,Consonant1,10,1,155,155,1,6,535,535,535,16,116,116,tenth,warm,Low,Unrelated,Transparent,Consonant1,10,1,133,133,1,6,701,701,701,17,117,117,freedom,four,Low,Unrelated,Transparent,Consonant1,10,1,11,11,1,6,579,579,579,18,118,118,kingdom,boy,Low,Unrelated,Transparent,Consonant1,10,1,65,65,1,6,476,476,476,19,119,119,sapling,eleven,Low,Unrelated,Transparent,Consonant1,10,1,146,146,1,6,911,911,911,20,120,120,earthling,six,Low,Unrelated,Transparent,Consonant1,10,1,14,14,0,5,599.557,,520,21,121,121,growth,duck,Low,Unrelated,Transparent,Consonant1,10,1,156,156,1,6,628,628,628,22,122,122,serfdom,star,Low,Unrelated,Transparent,Consonant1,10,1,41,41,1,6,696,696,696,23,123,123,health,man,Low,Unrelated,Transparent,Consonant2,10,1,400,200,1,6,543,543,543,24,124,124,seedling,bore,Low,Unrelated,Transparent,Consonant2,10,1,302,102,1,6,559,559,559,25,125,125,warmth,ten,Low,Unrelated,Transparent,Consonant2,10,1,214,14,1,6,490,490,490,26,126,126,fourth,free,Low,Unrelated,Transparent,Consonant2,10,1,284,84,1,6,651,651,651,27,127,127,boyhood,king,Low,Unrelated,Transparent,Consonant2,10,1,380,180,1,6,610,610,610,28,128,128,eleventh,sap,Low,Unrelated,Transparent,Consonant2,10,1,263,63,1,6,454,454,454,29,129,129,sixth,earth,Low,Unrelated,Transparent,Consonant2,10,1,213,13,0,,599.557,,0,30,130,130,duckling,grow,Low,Unrelated,Transparent,Consonant2,10,1,225,25,1,6,1005,1005,1005,31,131,131,stardom,serf,Low,Unrelated,Transparent,Consonant2,10,1,201,1,1,6,559,559,559,32,132,132,manhood,heal,Low,Unrelated,Transparent,Consonant1,10,1,98,98,1,6,520,520,520,33,133,133,classify,cash,Low,Unrelated,Transparent,Vowel1,10,1,111,111,1,6,602,602,602,34,134,134,hotelier,solid,Low,Unrelated,Transparent,Vowel1,10,1,85,85,1,6,582,582,582,35,135,135,marketeer,fort,Low,Unrelated,Transparent,Vowel1,10,1,166,166,1,6,736,736,736,36,136,136,justify,profit,Low,Unrelated,Transparent,Vowel1,10,1,165,165,1,6,611,611,611,37,137,137,courtier,direct,Low,Unrelated,Transparent,Vowel1,10,1,153,153,1,6,566,566,566,38,138,138,nullify,arm,Low,Unrelated,Transparent,Vowel1,10,1,124,124,1,6,684,684,684,39,139,139,racketeer,acid,Low,Unrelated,Transparent,Vowel1,10,1,150,150,1,6,665,665,665,40,140,140,musketeer,front,Low,Unrelated,Transparent,Vowel1,10,1,21,21,1,6,591,591,591,41,141,141,clothier,humid,Low,Unrelated,Transparent,Vowel2,10,1,348,148,1,6,619,619,619,42,142,142,cashier,class,Low,Unrelated,Transparent,Vowel2,10,1,252,52,1,6,540,540,540,43,143,143,solidify,hotel,Low,Unrelated,Transparent,Vowel2,10,1,244,44,1,6,625,625,625,44,144,144,fortify,market,Low,Unrelated,Transparent,Vowel2,10,1,278,78,1,6,778,778,778,45,145,145,profiteer,just,Low,Unrelated,Transparent,Vowel2,10,1,394,194,1,6,718,718,718,46,146,146,directory,court,Low,Unrelated,Transparent,Vowel2,10,1,268,68,1,6,847,847,847,47,147,147,armory,null,Low,Unrelated,Transparent,Vowel2,10,1,311,111,1,6,618,618,618,48,148,148,acidify,racket,Low,Unrelated,Transparent,Vowel2,10,1,360,160,1,6,909,909,909,49,149,149,frontier,musket,Low,Unrelated,Transparent,Vowel2,10,1,390,190,1,6,484,484,484,50,150,150,humidify,cloth,Low,Unrelated,Transparent,Vowel1,10,1,45,45,1,6,523,523,523,51,151,151,imply,wit,High,Unrelated,Opaque,Consonant2,10,1,317,117,1,6,747,747,747,52,152,152,witness,imp,High,Unrelated,Opaque,Consonant1,10,1,199,199,0,5,599.557,,860,53,153,153,flower,list,High,Unrelated,Opaque,Vowel1,10,1,26,26,1,6,606,606,606,54,154,154,traitor,past,High,Unrelated,Opaque,Vowel1,10,1,32,32,1,6,577,577,577,55,155,155,limber,ban,High,Unrelated,Opaque,Vowel1,10,1,130,130,1,6,927,927,927,56,156,156,hunger,heath,High,Unrelated,Opaque,Vowel1,10,1,162,162,1,6,791,791,791,57,157,157,pollen,mist,High,Unrelated,Opaque,Vowel1,10,1,9,9,1,6,674,674,674,58,158,158,vanish,rapt,High,Unrelated,Opaque,Vowel2,10,1,374,174,1,6,537,537,537,59,159,159,listen,flow,High,Unrelated,Opaque,Vowel2,10,1,331,131,1,6,839,839,839,60,160,160,pastor,trait,High,Unrelated,Opaque,Vowel2,10,1,282,82,1,6,714,714,714,61,161,161,banish,limb,High,Unrelated,Opaque,Vowel2,10,1,367,167,1,6,768,768,768,62,162,162,heathen,hung,High,Unrelated,Opaque,Vowel2,10,1,300,100,1,6,895,895,895,63,163,163,mister,poll,High,Unrelated,Opaque,Vowel2,10,1,295,95,1,6,590,590,590,64,164,164,raptor,van,High,Unrelated,Opaque,Vowel1,10,1,147,147,1,6,795,795,795,65,165,165,weakness,help,High,Unrelated,Transparent,Consonant1,10,1,28,28,1,6,535,535,535,66,166,166,greatly,chief,High,Unrelated,Transparent,Consonant1,10,1,174,174,1,6,628,628,628,67,167,167,illness,strong,High,Unrelated,Transparent,Consonant1,10,1,49,49,1,6,525,525,525,68,168,168,calmness,deaf,High,Unrelated,Transparent,Consonant1,10,1,23,23,1,6,552,552,552,69,169,169,deathlike,dead,High,Unrelated,Transparent,Consonant1,10,1,168,168,1,6,599.557,1625,1625,70,170,170,waiflike,sick,High,Unrelated,Transparent,Consonant1,10,1,148,148,1,6,632,632,632,71,171,171,highly,worth,High,Unrelated,Transparent,Consonant1,10,1,151,151,1,6,509,509,509,72,172,172,stainless,thank,High,Unrelated,Transparent,Consonant1,10,1,143,143,1,6,578,578,578,73,173,173,warlike,tooth,High,Unrelated,Transparent,Consonant2,10,1,274,74,1,6,529,529,529,74,174,174,helpless,weak,High,Unrelated,Transparent,Consonant2,10,1,353,153,1,6,475,475,475,75,175,175,chiefly,great,High,Unrelated,Transparent,Consonant2,10,1,206,6,1,6,592,592,592,76,176,176,strongly,ill,High,Unrelated,Transparent,Consonant2,10,1,319,119,1,6,867,867,867,77,177,177,deafness,calm,High,Unrelated,Transparent,Consonant2,10,1,203,3,1,6,504,504,504,78,178,178,deadly,death,High,Unrelated,Transparent,Consonant2,10,1,337,137,0,5,599.557,,592,79,179,179,sickness,waif,High,Unrelated,Transparent,Consonant2,10,1,285,85,1,6,603,603,603,80,180,180,worthless,high,High,Unrelated,Transparent,Consonant2,10,1,233,33,1,6,591,591,591,81,181,181,thankless,stain,High,Unrelated,Transparent,Consonant2,10,1,340,140,1,6,505,505,505,82,182,182,toothless,war,High,Unrelated,Transparent,Consonant1,10,1,169,169,0,5,599.557,,990,83,183,183,drawer,tract,High,Unrelated,Transparent,Vowel1,10,1,108,108,1,6,869,869,869,84,184,184,greenish,sculpt,High,Unrelated,Transparent,Vowel1,10,1,145,145,1,6,706,706,706,85,185,185,bookish,self,High,Unrelated,Transparent,Vowel1,10,1,81,81,1,6,587,587,587,86,186,186,drunken,fresh,High,Unrelated,Transparent,Vowel1,10,1,54,54,1,6,555,555,555,87,187,187,foolish,debt,High,Unrelated,Transparent,Vowel1,10,1,190,190,1,6,548,548,548,88,188,188,freakish,pray,High,Unrelated,Transparent,Vowel1,10,1,96,96,0,5,599.557,,735,89,189,189,flaxen,profess,High,Unrelated,Transparent,Vowel1,10,1,10,10,1,6,550,550,550,90,190,190,hunter,soft,High,Unrelated,Transparent,Vowel1,10,1,94,94,1,6,582,582,582,91,191,191,sailor,fast,High,Unrelated,Transparent,Vowel2,10,1,243,43,1,6,553,553,553,92,192,192,tractor,draw,High,Unrelated,Transparent,Vowel2,10,1,316,116,1,6,586,586,586,93,193,193,sculptor,green,High,Unrelated,Transparent,Vowel2,10,1,354,154,1,6,524,524,524,94,194,194,selfish,book,High,Unrelated,Transparent,Vowel2,10,1,247,47,1,6,658,658,658,95,195,195,freshen,drunk,High,Unrelated,Transparent,Vowel2,10,1,388,188,1,6,565,565,565,96,196,196,debtor,fool,High,Unrelated,Transparent,Vowel2,10,1,328,128,1,6,558,558,558,97,197,197,prayer,freak,High,Unrelated,Transparent,Vowel2,10,1,216,16,1,6,987,987,987,98,198,198,professor,flax,High,Unrelated,Transparent,Vowel2,10,1,275,75,1,6,465,465,465,99,199,199,soften,hunt,High,Unrelated,Transparent,Vowel2,10,1,368,168,1,6,600,600,600,100,200,200,fasten,sail,High,Unrelated,Transparent,Vowel2,11,1,259,59,1,6,448,448,448,1,1,1,breadth,bread,Low,Related,Opaque,Consonant2,11,1,300,100,1,6,610,610,610,2,2,2,hearth,hear,Low,Related,Opaque,Consonant2,11,1,382,182,1,6,438,438,438,3,3,3,youth,you,Low,Related,Opaque,Consonant1,11,1,74,74,1,6,730,730,730,4,4,4,kindling,kind,Low,Related,Opaque,Consonant1,11,1,140,140,1,6,466,466,466,5,5,5,dumpling,dump,Low,Related,Opaque,Consonant1,11,1,96,96,1,6,531,531,531,6,6,6,random,ran,Low,Related,Opaque,Consonant1,11,1,185,185,1,6,644,644,644,7,7,7,dearth,dear,Low,Related,Opaque,Consonant2,11,1,278,78,1,6,540,540,540,8,8,8,career,car,Low,Related,Opaque,Vowel2,11,1,289,89,1,6,464,464,464,9,9,9,ratify,rat,Low,Related,Opaque,Vowel2,11,1,291,91,1,6,512,512,512,10,10,10,factory,fact,Low,Related,Opaque,Vowel2,11,1,260,60,1,6,696,696,696,11,11,11,pillory,pill,Low,Related,Opaque,Vowel1,11,1,52,52,1,6,674,674,674,12,12,12,hickory,hick,Low,Related,Opaque,Vowel1,11,1,91,91,1,6,820,820,820,13,13,13,auditory,audit,Low,Related,Opaque,Vowel1,11,1,44,44,1,6,542,542,542,14,14,14,testify,test,Low,Related,Opaque,Vowel2,11,1,304,104,1,6,411,411,411,15,15,15,seedling,seed,Low,Related,Transparent,Consonant2,11,1,230,30,1,6,473,473,473,16,16,16,warmth,warm,Low,Related,Transparent,Consonant2,11,1,270,70,1,6,523,523,523,17,17,17,fourth,four,Low,Related,Transparent,Consonant2,11,1,311,111,1,6,516,516,516,18,18,18,boyhood,boy,Low,Related,Transparent,Consonant2,11,1,374,174,1,6,460,460,460,19,19,19,eleventh,eleven,Low,Related,Transparent,Consonant2,11,1,364,164,1,6,586,586,586,20,20,20,sixth,six,Low,Related,Transparent,Consonant2,11,1,308,108,1,6,460,460,460,21,21,21,duckling,duck,Low,Related,Transparent,Consonant2,11,1,225,25,1,6,544,544,544,22,22,22,stardom,star,Low,Related,Transparent,Consonant2,11,1,231,31,1,6,498,498,498,23,23,23,manhood,man,Low,Related,Transparent,Consonant1,11,1,175,175,1,6,538,538,538,24,24,24,boredom,bore,Low,Related,Transparent,Consonant1,11,1,27,27,1,6,684,684,684,25,25,25,tenth,ten,Low,Related,Transparent,Consonant1,11,1,147,147,1,6,488,488,488,26,26,26,freedom,free,Low,Related,Transparent,Consonant1,11,1,110,110,1,6,486,486,486,27,27,27,kingdom,king,Low,Related,Transparent,Consonant1,11,1,2,2,1,6,518,518,518,28,28,28,sapling,sap,Low,Related,Transparent,Consonant1,11,1,69,69,1,6,396,396,396,29,29,29,earthling,earth,Low,Related,Transparent,Consonant1,11,1,105,105,1,6,488,488,488,30,30,30,growth,grow,Low,Related,Transparent,Consonant1,11,1,131,131,1,6,650,650,650,31,31,31,serfdom,serf,Low,Related,Transparent,Consonant1,11,1,53,53,1,6,654,654,654,32,32,32,health,heal,Low,Related,Transparent,Consonant2,11,1,380,180,1,6,478,478,478,33,33,33,cashier,cash,Low,Related,Transparent,Vowel2,11,1,328,128,1,6,576,576,576,34,34,34,solidify,solid,Low,Related,Transparent,Vowel2,11,1,255,55,1,6,535,535,535,35,35,35,fortify,fort,Low,Related,Transparent,Vowel2,11,1,279,79,1,6,517,517,517,36,36,36,profiteer,profit,Low,Related,Transparent,Vowel2,11,1,383,183,1,6,917,917,917,37,37,37,directory,direct,Low,Related,Transparent,Vowel2,11,1,317,117,1,6,502,502,502,38,38,38,armory,arm,Low,Related,Transparent,Vowel2,11,1,226,26,1,6,560,560,560,39,39,39,acidify,acid,Low,Related,Transparent,Vowel2,11,1,274,74,1,6,451,451,451,40,40,40,frontier,front,Low,Related,Transparent,Vowel2,11,1,393,193,1,6,472,472,472,41,41,41,humidify,humid,Low,Related,Transparent,Vowel1,11,1,150,150,1,6,485,485,485,42,42,42,classify,class,Low,Related,Transparent,Vowel1,11,1,162,162,1,6,577,577,577,43,43,43,hotelier,hotel,Low,Related,Transparent,Vowel1,11,1,184,184,1,6,512,512,512,44,44,44,marketeer,market,Low,Related,Transparent,Vowel1,11,1,46,46,1,6,439,439,439,45,45,45,justify,just,Low,Related,Transparent,Vowel1,11,1,54,54,1,6,539,539,539,46,46,46,courtier,court,Low,Related,Transparent,Vowel1,11,1,152,152,1,6,590,590,590,47,47,47,nullify,null,Low,Related,Transparent,Vowel1,11,1,85,85,1,6,546,546,546,48,48,48,racketeer,racket,Low,Related,Transparent,Vowel1,11,1,127,127,1,6,512,512,512,49,49,49,musketeer,musket,Low,Related,Transparent,Vowel1,11,1,32,32,1,6,450,450,450,50,50,50,clothier,cloth,Low,Related,Transparent,Vowel2,11,1,240,40,1,6,531,531,531,51,51,51,witness,wit,High,Related,Opaque,Consonant1,11,1,73,73,1,6,902,902,902,52,52,52,imply,imp,High,Related,Opaque,Consonant2,11,1,254,54,1,6,455,455,455,53,53,53,listen,list,High,Related,Opaque,Vowel2,11,1,346,146,1,6,437,437,437,54,54,54,pastor,past,High,Related,Opaque,Vowel2,11,1,389,189,1,6,583,583,583,55,55,55,banish,ban,High,Related,Opaque,Vowel2,11,1,237,37,1,6,954,954,954,56,56,56,heathen,heath,High,Related,Opaque,Vowel2,11,1,310,110,1,6,548,548,548,57,57,57,mister,mist,High,Related,Opaque,Vowel2,11,1,318,118,1,6,950,950,950,58,58,58,raptor,rapt,High,Related,Opaque,Vowel1,11,1,3,3,1,6,539,539,539,59,59,59,flower,flow,High,Related,Opaque,Vowel1,11,1,75,75,0,5,599.557,,991,60,60,60,traitor,trait,High,Related,Opaque,Vowel1,11,1,116,116,1,6,569,569,569,61,61,61,limber,limb,High,Related,Opaque,Vowel1,11,1,193,193,1,6,944,944,944,62,62,62,hunger,hung,High,Related,Opaque,Vowel1,11,1,106,106,1,6,580,580,580,63,63,63,pollen,poll,High,Related,Opaque,Vowel1,11,1,24,24,1,6,423,423,423,64,64,64,vanish,van,High,Related,Opaque,Vowel2,11,1,303,103,1,6,531,531,531,65,65,65,helpless,help,High,Related,Transparent,Consonant2,11,1,250,50,1,6,622,622,622,66,66,66,chiefly,chief,High,Related,Transparent,Consonant2,11,1,352,152,1,6,574,574,574,67,67,67,strongly,strong,High,Related,Transparent,Consonant2,11,1,296,96,1,6,529,529,529,68,68,68,deafness,deaf,High,Related,Transparent,Consonant2,11,1,266,66,1,6,506,506,506,69,69,69,deadly,dead,High,Related,Transparent,Consonant2,11,1,222,22,1,6,567,567,567,70,70,70,sickness,sick,High,Related,Transparent,Consonant2,11,1,210,10,1,6,716,716,716,71,71,71,worthless,worth,High,Related,Transparent,Consonant2,11,1,271,71,1,6,475,475,475,72,72,72,thankless,thank,High,Related,Transparent,Consonant2,11,1,301,101,1,6,570,570,570,73,73,73,toothless,tooth,High,Related,Transparent,Consonant1,11,1,126,126,1,6,492,492,492,74,74,74,weakness,weak,High,Related,Transparent,Consonant1,11,1,156,156,1,6,616,616,616,75,75,75,greatly,great,High,Related,Transparent,Consonant1,11,1,1,1,1,6,714,714,714,76,76,76,illness,ill,High,Related,Transparent,Consonant1,11,1,137,137,1,6,509,509,509,77,77,77,calmness,calm,High,Related,Transparent,Consonant1,11,1,178,178,1,6,543,543,543,78,78,78,deathlike,death,High,Related,Transparent,Consonant1,11,1,109,109,0,5,599.557,,641,79,79,79,waiflike,waif,High,Related,Transparent,Consonant1,11,1,187,187,1,6,445,445,445,80,80,80,highly,high,High,Related,Transparent,Consonant1,11,1,111,111,1,6,626,626,626,81,81,81,stainless,stain,High,Related,Transparent,Consonant1,11,1,130,130,1,6,437,437,437,82,82,82,warlike,war,High,Related,Transparent,Consonant2,11,1,246,46,1,6,581,581,581,83,83,83,tractor,tract,High,Related,Transparent,Vowel2,11,1,211,11,1,6,669,669,669,84,84,84,sculptor,sculpt,High,Related,Transparent,Vowel2,11,1,243,43,1,6,444,444,444,85,85,85,selfish,self,High,Related,Transparent,Vowel2,11,1,372,172,1,6,611,611,611,86,86,86,freshen,fresh,High,Related,Transparent,Vowel2,11,1,273,73,1,6,467,467,467,87,87,87,debtor,debt,High,Related,Transparent,Vowel2,11,1,263,63,1,6,537,537,537,88,88,88,prayer,pray,High,Related,Transparent,Vowel2,11,1,212,12,1,6,701,701,701,89,89,89,professor,profess,High,Related,Transparent,Vowel2,11,1,286,86,1,6,567,567,567,90,90,90,soften,soft,High,Related,Transparent,Vowel2,11,1,336,136,1,6,643,643,643,91,91,91,fasten,fast,High,Related,Transparent,Vowel1,11,1,78,78,1,6,635,635,635,92,92,92,drawer,draw,High,Related,Transparent,Vowel1,11,1,63,63,1,6,649,649,649,93,93,93,greenish,green,High,Related,Transparent,Vowel1,11,1,41,41,1,6,585,585,585,94,94,94,bookish,book,High,Related,Transparent,Vowel1,11,1,38,38,1,6,508,508,508,95,95,95,drunken,drunk,High,Related,Transparent,Vowel1,11,1,79,79,1,6,520,520,520,96,96,96,foolish,fool,High,Related,Transparent,Vowel1,11,1,124,124,1,6,507,507,507,97,97,97,freakish,freak,High,Related,Transparent,Vowel1,11,1,60,60,1,6,524,524,524,98,98,98,flaxen,flax,High,Related,Transparent,Vowel1,11,1,199,199,1,6,522,522,522,99,99,99,hunter,hunt,High,Related,Transparent,Vowel1,11,1,168,168,1,6,556,556,556,100,100,100,sailor,sail,High,Related,Transparent,Vowel1,11,1,101,101,1,6,527,527,527,1,101,101,kindling,bread,Low,Unrelated,Opaque,Consonant1,11,1,182,182,1,6,496,496,496,2,102,102,dumpling,hear,Low,Unrelated,Opaque,Consonant1,11,1,30,30,1,6,433,433,433,3,103,103,random,you,Low,Unrelated,Opaque,Consonant2,11,1,252,52,1,6,471,471,471,4,104,104,breadth,kind,Low,Unrelated,Opaque,Consonant2,11,1,332,132,1,6,737,737,737,5,105,105,hearth,dump,Low,Unrelated,Opaque,Consonant2,11,1,396,196,1,6,449,449,449,6,106,106,youth,ran,Low,Unrelated,Opaque,Consonant2,11,1,284,84,1,6,430,430,430,7,107,107,pillory,dear,Low,Unrelated,Opaque,Consonant1,11,1,65,65,1,6,498,498,498,8,108,108,hickory,car,Low,Unrelated,Opaque,Vowel1,11,1,174,174,1,6,550,550,550,9,109,109,auditory,rat,Low,Unrelated,Opaque,Vowel1,11,1,19,19,1,6,599.557,1681,1681,10,110,110,testify,fact,Low,Unrelated,Opaque,Vowel1,11,1,57,57,1,6,487,487,487,11,111,111,dearth,pill,Low,Unrelated,Opaque,Vowel2,11,1,325,125,1,6,800,800,800,12,112,112,career,hick,Low,Unrelated,Opaque,Vowel2,11,1,221,21,1,6,719,719,719,13,113,113,ratify,audit,Low,Unrelated,Opaque,Vowel2,11,1,275,75,1,6,476,476,476,14,114,114,factory,test,Low,Unrelated,Opaque,Vowel1,11,1,108,108,1,6,581,581,581,15,115,115,boredom,seed,Low,Unrelated,Transparent,Consonant1,11,1,13,13,1,6,335,335,335,16,116,116,tenth,warm,Low,Unrelated,Transparent,Consonant1,11,1,100,100,1,6,491,491,491,17,117,117,freedom,four,Low,Unrelated,Transparent,Consonant1,11,1,103,103,1,6,567,567,567,18,118,118,kingdom,boy,Low,Unrelated,Transparent,Consonant1,11,1,9,9,1,6,566,566,566,19,119,119,sapling,eleven,Low,Unrelated,Transparent,Consonant1,11,1,138,138,1,6,497,497,497,20,120,120,earthling,six,Low,Unrelated,Transparent,Consonant1,11,1,125,125,1,6,495,495,495,21,121,121,growth,duck,Low,Unrelated,Transparent,Consonant1,11,1,161,161,1,6,542,542,542,22,122,122,serfdom,star,Low,Unrelated,Transparent,Consonant1,11,1,66,66,1,6,447,447,447,23,123,123,health,man,Low,Unrelated,Transparent,Consonant2,11,1,281,81,1,6,437,437,437,24,124,124,seedling,bore,Low,Unrelated,Transparent,Consonant2,11,1,251,51,1,6,542,542,542,25,125,125,warmth,ten,Low,Unrelated,Transparent,Consonant2,11,1,373,173,1,6,499,499,499,26,126,126,fourth,free,Low,Unrelated,Transparent,Consonant2,11,1,239,39,1,6,467,467,467,27,127,127,boyhood,king,Low,Unrelated,Transparent,Consonant2,11,1,217,17,1,6,558,558,558,28,128,128,eleventh,sap,Low,Unrelated,Transparent,Consonant2,11,1,357,157,1,6,664,664,664,29,129,129,sixth,earth,Low,Unrelated,Transparent,Consonant2,11,1,213,13,1,6,581,581,581,30,130,130,duckling,grow,Low,Unrelated,Transparent,Consonant2,11,1,207,7,1,6,691,691,691,31,131,131,stardom,serf,Low,Unrelated,Transparent,Consonant2,11,1,369,169,1,6,562,562,562,32,132,132,manhood,heal,Low,Unrelated,Transparent,Consonant1,11,1,92,92,1,6,545,545,545,33,133,133,classify,cash,Low,Unrelated,Transparent,Vowel1,11,1,148,148,1,6,732,732,732,34,134,134,hotelier,solid,Low,Unrelated,Transparent,Vowel1,11,1,136,136,1,6,488,488,488,35,135,135,marketeer,fort,Low,Unrelated,Transparent,Vowel1,11,1,34,34,1,6,523,523,523,36,136,136,justify,profit,Low,Unrelated,Transparent,Vowel1,11,1,62,62,1,6,533,533,533,37,137,137,courtier,direct,Low,Unrelated,Transparent,Vowel1,11,1,90,90,1,6,656,656,656,38,138,138,nullify,arm,Low,Unrelated,Transparent,Vowel1,11,1,179,179,1,6,763,763,763,39,139,139,racketeer,acid,Low,Unrelated,Transparent,Vowel1,11,1,120,120,1,6,553,553,553,40,140,140,musketeer,front,Low,Unrelated,Transparent,Vowel1,11,1,87,87,1,6,683,683,683,41,141,141,clothier,humid,Low,Unrelated,Transparent,Vowel2,11,1,333,133,1,6,650,650,650,42,142,142,cashier,class,Low,Unrelated,Transparent,Vowel2,11,1,209,9,1,6,492,492,492,43,143,143,solidify,hotel,Low,Unrelated,Transparent,Vowel2,11,1,215,15,1,6,438,438,438,44,144,144,fortify,market,Low,Unrelated,Transparent,Vowel2,11,1,203,3,1,6,498,498,498,45,145,145,profiteer,just,Low,Unrelated,Transparent,Vowel2,11,1,294,94,1,6,568,568,568,46,146,146,directory,court,Low,Unrelated,Transparent,Vowel2,11,1,236,36,1,6,522,522,522,47,147,147,armory,null,Low,Unrelated,Transparent,Vowel2,11,1,313,113,1,6,573,573,573,48,148,148,acidify,racket,Low,Unrelated,Transparent,Vowel2,11,1,314,114,1,6,573,573,573,49,149,149,frontier,musket,Low,Unrelated,Transparent,Vowel2,11,1,277,77,1,6,468,468,468,50,150,150,humidify,cloth,Low,Unrelated,Transparent,Vowel1,11,1,135,135,1,6,668,668,668,51,151,151,imply,wit,High,Unrelated,Opaque,Consonant2,11,1,269,69,1,6,699,699,699,52,152,152,witness,imp,High,Unrelated,Opaque,Consonant1,11,1,143,143,1,6,510,510,510,53,153,153,flower,list,High,Unrelated,Opaque,Vowel1,11,1,11,11,1,6,303,303,303,54,154,154,traitor,past,High,Unrelated,Opaque,Vowel1,11,1,133,133,1,6,659,659,659,55,155,155,limber,ban,High,Unrelated,Opaque,Vowel1,11,1,166,166,1,6,555,555,555,56,156,156,hunger,heath,High,Unrelated,Opaque,Vowel1,11,1,4,4,1,6,423,423,423,57,157,157,pollen,mist,High,Unrelated,Opaque,Vowel1,11,1,15,15,1,6,551,551,551,58,158,158,vanish,rapt,High,Unrelated,Opaque,Vowel2,11,1,245,45,1,6,525,525,525,59,159,159,listen,flow,High,Unrelated,Opaque,Vowel2,11,1,365,165,1,6,673,673,673,60,160,160,pastor,trait,High,Unrelated,Opaque,Vowel2,11,1,391,191,1,6,696,696,696,61,161,161,banish,limb,High,Unrelated,Opaque,Vowel2,11,1,220,20,1,6,598,598,598,62,162,162,heathen,hung,High,Unrelated,Opaque,Vowel2,11,1,305,105,1,6,507,507,507,63,163,163,mister,poll,High,Unrelated,Opaque,Vowel2,11,1,205,5,1,6,579,579,579,64,164,164,raptor,van,High,Unrelated,Opaque,Vowel1,11,1,165,165,1,6,430,430,430,65,165,165,weakness,help,High,Unrelated,Transparent,Consonant1,11,1,23,23,1,6,651,651,651,66,166,166,greatly,chief,High,Unrelated,Transparent,Consonant1,11,1,159,159,1,6,477,477,477,67,167,167,illness,strong,High,Unrelated,Transparent,Consonant1,11,1,183,183,1,6,515,515,515,68,168,168,calmness,deaf,High,Unrelated,Transparent,Consonant1,11,1,157,157,1,6,532,532,532,69,169,169,deathlike,dead,High,Unrelated,Transparent,Consonant1,11,1,77,77,1,6,591,591,591,70,170,170,waiflike,sick,High,Unrelated,Transparent,Consonant1,11,1,76,76,1,6,515,515,515,71,171,171,highly,worth,High,Unrelated,Transparent,Consonant1,11,1,102,102,1,6,579,579,579,72,172,172,stainless,thank,High,Unrelated,Transparent,Consonant1,11,1,6,6,1,6,448,448,448,73,173,173,warlike,tooth,High,Unrelated,Transparent,Consonant2,11,1,384,184,1,6,494,494,494,74,174,174,helpless,weak,High,Unrelated,Transparent,Consonant2,11,1,349,149,0,5,599.557,,509,75,175,175,chiefly,great,High,Unrelated,Transparent,Consonant2,11,1,381,181,1,6,510,510,510,76,176,176,strongly,ill,High,Unrelated,Transparent,Consonant2,11,1,272,72,1,6,620,620,620,77,177,177,deafness,calm,High,Unrelated,Transparent,Consonant2,11,1,292,92,1,6,472,472,472,78,178,178,deadly,death,High,Unrelated,Transparent,Consonant2,11,1,258,58,1,6,592,592,592,79,179,179,sickness,waif,High,Unrelated,Transparent,Consonant2,11,1,394,194,1,6,497,497,497,80,180,180,worthless,high,High,Unrelated,Transparent,Consonant2,11,1,248,48,1,6,598,598,598,81,181,181,thankless,stain,High,Unrelated,Transparent,Consonant2,11,1,206,6,1,6,507,507,507,82,182,182,toothless,war,High,Unrelated,Transparent,Consonant1,11,1,194,194,1,6,740,740,740,83,183,183,drawer,tract,High,Unrelated,Transparent,Vowel1,11,1,80,80,1,6,540,540,540,84,184,184,greenish,sculpt,High,Unrelated,Transparent,Vowel1,11,1,72,72,1,6,546,546,546,85,185,185,bookish,self,High,Unrelated,Transparent,Vowel1,11,1,123,123,1,6,454,454,454,86,186,186,drunken,fresh,High,Unrelated,Transparent,Vowel1,11,1,142,142,1,6,522,522,522,87,187,187,foolish,debt,High,Unrelated,Transparent,Vowel1,11,1,47,47,1,6,556,556,556,88,188,188,freakish,pray,High,Unrelated,Transparent,Vowel1,11,1,84,84,1,6,766,766,766,89,189,189,flaxen,profess,High,Unrelated,Transparent,Vowel1,11,1,51,51,1,6,445,445,445,90,190,190,hunter,soft,High,Unrelated,Transparent,Vowel1,11,1,81,81,1,6,448,448,448,91,191,191,sailor,fast,High,Unrelated,Transparent,Vowel2,11,1,290,90,1,6,496,496,496,92,192,192,tractor,draw,High,Unrelated,Transparent,Vowel2,11,1,379,179,1,6,469,469,469,93,193,193,sculptor,green,High,Unrelated,Transparent,Vowel2,11,1,312,112,1,6,532,532,532,94,194,194,selfish,book,High,Unrelated,Transparent,Vowel2,11,1,224,24,1,6,495,495,495,95,195,195,freshen,drunk,High,Unrelated,Transparent,Vowel2,11,1,348,148,1,6,485,485,485,96,196,196,debtor,fool,High,Unrelated,Transparent,Vowel2,11,1,265,65,1,6,514,514,514,97,197,197,prayer,freak,High,Unrelated,Transparent,Vowel2,11,1,324,124,1,6,496,496,496,98,198,198,professor,flax,High,Unrelated,Transparent,Vowel2,11,1,376,176,1,6,556,556,556,99,199,199,soften,hunt,High,Unrelated,Transparent,Vowel2,11,1,335,135,1,6,466,466,466,100,200,200,fasten,sail,High,Unrelated,Transparent,Vowel2,12,1,256,56,1,6,488,488,488,1,1,1,breadth,bread,Low,Related,Opaque,Consonant2,12,1,214,14,1,6,407,407,407,2,2,2,hearth,hear,Low,Related,Opaque,Consonant2,12,1,234,34,1,6,395,395,395,3,3,3,youth,you,Low,Related,Opaque,Consonant1,12,1,43,43,1,6,421,421,421,4,4,4,kindling,kind,Low,Related,Opaque,Consonant1,12,1,142,142,1,6,591,591,591,5,5,5,dumpling,dump,Low,Related,Opaque,Consonant1,12,1,146,146,1,6,617,617,617,6,6,6,random,ran,Low,Related,Opaque,Consonant1,12,1,28,28,1,6,521,521,521,7,7,7,dearth,dear,Low,Related,Opaque,Consonant2,12,1,285,85,1,6,415,415,415,8,8,8,career,car,Low,Related,Opaque,Vowel2,12,1,348,148,1,6,423,423,423,9,9,9,ratify,rat,Low,Related,Opaque,Vowel2,12,1,203,3,1,6,484,484,484,10,10,10,factory,fact,Low,Related,Opaque,Vowel2,12,1,388,188,1,6,488,488,488,11,11,11,pillory,pill,Low,Related,Opaque,Vowel1,12,1,12,12,1,6,554,554,554,12,12,12,hickory,hick,Low,Related,Opaque,Vowel1,12,1,17,17,1,6,801,801,801,13,13,13,auditory,audit,Low,Related,Opaque,Vowel1,12,1,183,183,1,6,455,455,455,14,14,14,testify,test,Low,Related,Opaque,Vowel2,12,1,212,12,1,6,382,382,382,15,15,15,seedling,seed,Low,Related,Transparent,Consonant2,12,1,366,166,1,6,387,387,387,16,16,16,warmth,warm,Low,Related,Transparent,Consonant2,12,1,359,159,1,6,409,409,409,17,17,17,fourth,four,Low,Related,Transparent,Consonant2,12,1,390,190,1,6,409,409,409,18,18,18,boyhood,boy,Low,Related,Transparent,Consonant2,12,1,272,72,1,6,492,492,492,19,19,19,eleventh,eleven,Low,Related,Transparent,Consonant2,12,1,268,68,1,6,404,404,404,20,20,20,sixth,six,Low,Related,Transparent,Consonant2,12,1,250,50,1,6,431,431,431,21,21,21,duckling,duck,Low,Related,Transparent,Consonant2,12,1,243,43,1,6,630,630,630,22,22,22,stardom,star,Low,Related,Transparent,Consonant2,12,1,296,96,1,6,499,499,499,23,23,23,manhood,man,Low,Related,Transparent,Consonant1,12,1,60,60,1,6,465,465,465,24,24,24,boredom,bore,Low,Related,Transparent,Consonant1,12,1,45,45,1,6,582,582,582,25,25,25,tenth,ten,Low,Related,Transparent,Consonant1,12,1,20,20,1,6,606,606,606,26,26,26,freedom,free,Low,Related,Transparent,Consonant1,12,1,112,112,1,6,417,417,417,27,27,27,kingdom,king,Low,Related,Transparent,Consonant1,12,1,22,22,1,6,590,590,590,28,28,28,sapling,sap,Low,Related,Transparent,Consonant1,12,1,42,42,1,6,441,441,441,29,29,29,earthling,earth,Low,Related,Transparent,Consonant1,12,1,39,39,1,6,603,603,603,30,30,30,growth,grow,Low,Related,Transparent,Consonant1,12,1,120,120,1,6,693,693,693,31,31,31,serfdom,serf,Low,Related,Transparent,Consonant1,12,1,80,80,1,6,379,379,379,32,32,32,health,heal,Low,Related,Transparent,Consonant2,12,1,325,125,1,6,489,489,489,33,33,33,cashier,cash,Low,Related,Transparent,Vowel2,12,1,219,19,1,6,647,647,647,34,34,34,solidify,solid,Low,Related,Transparent,Vowel2,12,1,324,124,1,6,720,720,720,35,35,35,fortify,fort,Low,Related,Transparent,Vowel2,12,1,255,55,1,6,440,440,440,36,36,36,profiteer,profit,Low,Related,Transparent,Vowel2,12,1,315,115,1,6,535,535,535,37,37,37,directory,direct,Low,Related,Transparent,Vowel2,12,1,329,129,1,6,666,666,666,38,38,38,armory,arm,Low,Related,Transparent,Vowel2,12,1,221,21,1,6,504,504,504,39,39,39,acidify,acid,Low,Related,Transparent,Vowel2,12,1,276,76,1,6,477,477,477,40,40,40,frontier,front,Low,Related,Transparent,Vowel2,12,1,308,108,1,6,541,541,541,41,41,41,humidify,humid,Low,Related,Transparent,Vowel1,12,1,137,137,1,6,426,426,426,42,42,42,classify,class,Low,Related,Transparent,Vowel1,12,1,52,52,1,6,525,525,525,43,43,43,hotelier,hotel,Low,Related,Transparent,Vowel1,12,1,181,181,1,6,446,446,446,44,44,44,marketeer,market,Low,Related,Transparent,Vowel1,12,1,23,23,1,6,515,515,515,45,45,45,justify,just,Low,Related,Transparent,Vowel1,12,1,182,182,1,6,531,531,531,46,46,46,courtier,court,Low,Related,Transparent,Vowel1,12,1,68,68,1,6,597,597,597,47,47,47,nullify,null,Low,Related,Transparent,Vowel1,12,1,57,57,1,6,579,579,579,48,48,48,racketeer,racket,Low,Related,Transparent,Vowel1,12,1,164,164,1,6,698,698,698,49,49,49,musketeer,musket,Low,Related,Transparent,Vowel1,12,1,145,145,1,6,493,493,493,50,50,50,clothier,cloth,Low,Related,Transparent,Vowel2,12,1,291,91,1,6,585,585,585,51,51,51,witness,wit,High,Related,Opaque,Consonant1,12,1,93,93,1,6,732,732,732,52,52,52,imply,imp,High,Related,Opaque,Consonant2,12,1,353,153,1,6,431,431,431,53,53,53,listen,list,High,Related,Opaque,Vowel2,12,1,334,134,1,6,507,507,507,54,54,54,pastor,past,High,Related,Opaque,Vowel2,12,1,314,114,1,6,495,495,495,55,55,55,banish,ban,High,Related,Opaque,Vowel2,12,1,290,90,0,5,599.557,,561,56,56,56,heathen,heath,High,Related,Opaque,Vowel2,12,1,326,126,1,6,537,537,537,57,57,57,mister,mist,High,Related,Opaque,Vowel2,12,1,211,11,1,6,550,550,550,58,58,58,raptor,rapt,High,Related,Opaque,Vowel1,12,1,125,125,1,6,572,572,572,59,59,59,flower,flow,High,Related,Opaque,Vowel1,12,1,7,7,0,5,599.557,,780,60,60,60,traitor,trait,High,Related,Opaque,Vowel1,12,1,111,111,1,6,629,629,629,61,61,61,limber,limb,High,Related,Opaque,Vowel1,12,1,109,109,1,6,589,589,589,62,62,62,hunger,hung,High,Related,Opaque,Vowel1,12,1,24,24,1,6,543,543,543,63,63,63,pollen,poll,High,Related,Opaque,Vowel1,12,1,38,38,1,6,1015,1015,1015,64,64,64,vanish,van,High,Related,Opaque,Vowel2,12,1,381,181,1,6,414,414,414,65,65,65,helpless,help,High,Related,Transparent,Consonant2,12,1,282,82,1,6,495,495,495,66,66,66,chiefly,chief,High,Related,Transparent,Consonant2,12,1,311,111,1,6,430,430,430,67,67,67,strongly,strong,High,Related,Transparent,Consonant2,12,1,252,52,1,6,431,431,431,68,68,68,deafness,deaf,High,Related,Transparent,Consonant2,12,1,273,73,1,6,548,548,548,69,69,69,deadly,dead,High,Related,Transparent,Consonant2,12,1,385,185,1,6,407,407,407,70,70,70,sickness,sick,High,Related,Transparent,Consonant2,12,1,376,176,1,6,501,501,501,71,71,71,worthless,worth,High,Related,Transparent,Consonant2,12,1,263,63,1,6,570,570,570,72,72,72,thankless,thank,High,Related,Transparent,Consonant2,12,1,251,51,1,6,471,471,471,73,73,73,toothless,tooth,High,Related,Transparent,Consonant1,12,1,126,126,1,6,464,464,464,74,74,74,weakness,weak,High,Related,Transparent,Consonant1,12,1,77,77,1,6,605,605,605,75,75,75,greatly,great,High,Related,Transparent,Consonant1,12,1,108,108,1,6,448,448,448,76,76,76,illness,ill,High,Related,Transparent,Consonant1,12,1,172,172,1,6,662,662,662,77,77,77,calmness,calm,High,Related,Transparent,Consonant1,12,1,66,66,0,5,599.557,,500,78,78,78,deathlike,death,High,Related,Transparent,Consonant1,12,1,63,63,1,6,902,902,902,79,79,79,waiflike,waif,High,Related,Transparent,Consonant1,12,1,169,169,1,6,521,521,521,80,80,80,highly,high,High,Related,Transparent,Consonant1,12,1,37,37,1,6,506,506,506,81,81,81,stainless,stain,High,Related,Transparent,Consonant1,12,1,133,133,1,6,400,400,400,82,82,82,warlike,war,High,Related,Transparent,Consonant2,12,1,261,61,1,6,658,658,658,83,83,83,tractor,tract,High,Related,Transparent,Vowel2,12,1,265,65,1,6,475,475,475,84,84,84,sculptor,sculpt,High,Related,Transparent,Vowel2,12,1,351,151,1,6,439,439,439,85,85,85,selfish,self,High,Related,Transparent,Vowel2,12,1,345,145,1,6,494,494,494,86,86,86,freshen,fresh,High,Related,Transparent,Vowel2,12,1,260,60,1,6,666,666,666,87,87,87,debtor,debt,High,Related,Transparent,Vowel2,12,1,400,200,1,6,410,410,410,88,88,88,prayer,pray,High,Related,Transparent,Vowel2,12,1,367,167,1,6,571,571,571,89,89,89,professor,profess,High,Related,Transparent,Vowel2,12,1,331,131,1,6,426,426,426,90,90,90,soften,soft,High,Related,Transparent,Vowel2,12,1,382,182,1,6,438,438,438,91,91,91,fasten,fast,High,Related,Transparent,Vowel1,12,1,50,50,1,6,549,549,549,92,92,92,drawer,draw,High,Related,Transparent,Vowel1,12,1,144,144,1,6,480,480,480,93,93,93,greenish,green,High,Related,Transparent,Vowel1,12,1,72,72,1,6,487,487,487,94,94,94,bookish,book,High,Related,Transparent,Vowel1,12,1,75,75,1,6,580,580,580,95,95,95,drunken,drunk,High,Related,Transparent,Vowel1,12,1,58,58,1,6,488,488,488,96,96,96,foolish,fool,High,Related,Transparent,Vowel1,12,1,67,67,1,6,456,456,456,97,97,97,freakish,freak,High,Related,Transparent,Vowel1,12,1,115,115,1,6,687,687,687,98,98,98,flaxen,flax,High,Related,Transparent,Vowel1,12,1,141,141,1,6,475,475,475,99,99,99,hunter,hunt,High,Related,Transparent,Vowel1,12,1,30,30,0,5,599.557,,699,100,100,100,sailor,sail,High,Related,Transparent,Vowel1,12,1,150,150,1,6,563,563,563,1,101,101,kindling,bread,Low,Unrelated,Opaque,Consonant1,12,1,196,196,1,6,599.557,1082,1082,2,102,102,dumpling,hear,Low,Unrelated,Opaque,Consonant1,12,1,162,162,1,6,481,481,481,3,103,103,random,you,Low,Unrelated,Opaque,Consonant2,12,1,391,191,1,6,417,417,417,4,104,104,breadth,kind,Low,Unrelated,Opaque,Consonant2,12,1,397,197,1,6,506,506,506,5,105,105,hearth,dump,Low,Unrelated,Opaque,Consonant2,12,1,346,146,1,6,486,486,486,6,106,106,youth,ran,Low,Unrelated,Opaque,Consonant2,12,1,304,104,1,6,604,604,604,7,107,107,pillory,dear,Low,Unrelated,Opaque,Consonant1,12,1,194,194,0,5,599.557,,73,8,108,108,hickory,car,Low,Unrelated,Opaque,Vowel1,12,1,40,40,1,6,624,624,624,9,109,109,auditory,rat,Low,Unrelated,Opaque,Vowel1,12,1,153,153,1,6,609,609,609,10,110,110,testify,fact,Low,Unrelated,Opaque,Vowel1,12,1,116,116,1,6,491,491,491,11,111,111,dearth,pill,Low,Unrelated,Opaque,Vowel2,12,1,363,163,1,6,522,522,522,12,112,112,career,hick,Low,Unrelated,Opaque,Vowel2,12,1,204,4,1,6,676,676,676,13,113,113,ratify,audit,Low,Unrelated,Opaque,Vowel2,12,1,347,147,1,6,503,503,503,14,114,114,factory,test,Low,Unrelated,Opaque,Vowel1,12,1,96,96,1,6,474,474,474,15,115,115,boredom,seed,Low,Unrelated,Transparent,Consonant1,12,1,21,21,1,6,522,522,522,16,116,116,tenth,warm,Low,Unrelated,Transparent,Consonant1,12,1,192,192,0,5,599.557,,584,17,117,117,freedom,four,Low,Unrelated,Transparent,Consonant1,12,1,53,53,1,6,425,425,425,18,118,118,kingdom,boy,Low,Unrelated,Transparent,Consonant1,12,1,171,171,1,6,577,577,577,19,119,119,sapling,eleven,Low,Unrelated,Transparent,Consonant1,12,1,197,197,1,6,470,470,470,20,120,120,earthling,six,Low,Unrelated,Transparent,Consonant1,12,1,79,79,1,6,534,534,534,21,121,121,growth,duck,Low,Unrelated,Transparent,Consonant1,12,1,74,74,1,6,520,520,520,22,122,122,serfdom,star,Low,Unrelated,Transparent,Consonant1,12,1,156,156,1,6,462,462,462,23,123,123,health,man,Low,Unrelated,Transparent,Consonant2,12,1,307,107,1,6,629,629,629,24,124,124,seedling,bore,Low,Unrelated,Transparent,Consonant2,12,1,278,78,1,6,494,494,494,25,125,125,warmth,ten,Low,Unrelated,Transparent,Consonant2,12,1,213,13,1,6,391,391,391,26,126,126,fourth,free,Low,Unrelated,Transparent,Consonant2,12,1,313,113,1,6,454,454,454,27,127,127,boyhood,king,Low,Unrelated,Transparent,Consonant2,12,1,387,187,0,5,599.557,,552,28,128,128,eleventh,sap,Low,Unrelated,Transparent,Consonant2,12,1,344,144,1,6,606,606,606,29,129,129,sixth,earth,Low,Unrelated,Transparent,Consonant2,12,1,357,157,1,6,456,456,456,30,130,130,duckling,grow,Low,Unrelated,Transparent,Consonant2,12,1,254,54,1,6,688,688,688,31,131,131,stardom,serf,Low,Unrelated,Transparent,Consonant2,12,1,356,156,1,6,440,440,440,32,132,132,manhood,heal,Low,Unrelated,Transparent,Consonant1,12,1,81,81,1,6,398,398,398,33,133,133,classify,cash,Low,Unrelated,Transparent,Vowel1,12,1,41,41,1,6,596,596,596,34,134,134,hotelier,solid,Low,Unrelated,Transparent,Vowel1,12,1,9,9,1,6,621,621,621,35,135,135,marketeer,fort,Low,Unrelated,Transparent,Vowel1,12,1,64,64,1,6,635,635,635,36,136,136,justify,profit,Low,Unrelated,Transparent,Vowel1,12,1,122,122,1,6,542,542,542,37,137,137,courtier,direct,Low,Unrelated,Transparent,Vowel1,12,1,54,54,1,6,582,582,582,38,138,138,nullify,arm,Low,Unrelated,Transparent,Vowel1,12,1,138,138,1,6,622,622,622,39,139,139,racketeer,acid,Low,Unrelated,Transparent,Vowel1,12,1,35,35,1,6,553,553,553,40,140,140,musketeer,front,Low,Unrelated,Transparent,Vowel1,12,1,155,155,0,5,599.557,,602,41,141,141,clothier,humid,Low,Unrelated,Transparent,Vowel2,12,1,281,81,1,6,462,462,462,42,142,142,cashier,class,Low,Unrelated,Transparent,Vowel2,12,1,232,32,1,6,547,547,547,43,143,143,solidify,hotel,Low,Unrelated,Transparent,Vowel2,12,1,319,119,1,6,536,536,536,44,144,144,fortify,market,Low,Unrelated,Transparent,Vowel2,12,1,399,199,1,6,419,419,419,45,145,145,profiteer,just,Low,Unrelated,Transparent,Vowel2,12,1,305,105,1,6,708,708,708,46,146,146,directory,court,Low,Unrelated,Transparent,Vowel2,12,1,352,152,1,6,815,815,815,47,147,147,armory,null,Low,Unrelated,Transparent,Vowel2,12,1,271,71,1,6,596,596,596,48,148,148,acidify,racket,Low,Unrelated,Transparent,Vowel2,12,1,373,173,1,6,485,485,485,49,149,149,frontier,musket,Low,Unrelated,Transparent,Vowel2,12,1,224,24,1,6,489,489,489,50,150,150,humidify,cloth,Low,Unrelated,Transparent,Vowel1,12,1,84,84,1,6,500,500,500,51,151,151,imply,wit,High,Unrelated,Opaque,Consonant2,12,1,380,180,1,6,646,646,646,52,152,152,witness,imp,High,Unrelated,Opaque,Consonant1,12,1,163,163,1,6,606,606,606,53,153,153,flower,list,High,Unrelated,Opaque,Vowel1,12,1,188,188,1,6,590,590,590,54,154,154,traitor,past,High,Unrelated,Opaque,Vowel1,12,1,90,90,1,6,671,671,671,55,155,155,limber,ban,High,Unrelated,Opaque,Vowel1,12,1,179,179,0,5,599.557,,845,56,156,156,hunger,heath,High,Unrelated,Opaque,Vowel1,12,1,176,176,0,5,599.557,,152,57,157,157,pollen,mist,High,Unrelated,Opaque,Vowel1,12,1,32,32,0,5,599.557,,900,58,158,158,vanish,rapt,High,Unrelated,Opaque,Vowel2,12,1,217,17,1,6,416,416,416,59,159,159,listen,flow,High,Unrelated,Opaque,Vowel2,12,1,358,158,1,6,609,609,609,60,160,160,pastor,trait,High,Unrelated,Opaque,Vowel2,12,1,375,175,1,6,556,556,556,61,161,161,banish,limb,High,Unrelated,Opaque,Vowel2,12,1,368,168,1,6,587,587,587,62,162,162,heathen,hung,High,Unrelated,Opaque,Vowel2,12,1,364,164,1,6,514,514,514,63,163,163,mister,poll,High,Unrelated,Opaque,Vowel2,12,1,362,162,1,6,490,490,490,64,164,164,raptor,van,High,Unrelated,Opaque,Vowel1,12,1,113,113,1,6,494,494,494,65,165,165,weakness,help,High,Unrelated,Transparent,Consonant1,12,1,104,104,1,6,582,582,582,66,166,166,greatly,chief,High,Unrelated,Transparent,Consonant1,12,1,119,119,1,6,433,433,433,67,167,167,illness,strong,High,Unrelated,Transparent,Consonant1,12,1,97,97,1,6,455,455,455,68,168,168,calmness,deaf,High,Unrelated,Transparent,Consonant1,12,1,158,158,1,6,359,359,359,69,169,169,deathlike,dead,High,Unrelated,Transparent,Consonant1,12,1,59,59,1,6,444,444,444,70,170,170,waiflike,sick,High,Unrelated,Transparent,Consonant1,12,1,98,98,1,6,555,555,555,71,171,171,highly,worth,High,Unrelated,Transparent,Consonant1,12,1,2,2,1,6,613,613,613,72,172,172,stainless,thank,High,Unrelated,Transparent,Consonant1,12,1,195,195,1,6,429,429,429,73,173,173,warlike,tooth,High,Unrelated,Transparent,Consonant2,12,1,355,155,1,6,472,472,472,74,174,174,helpless,weak,High,Unrelated,Transparent,Consonant2,12,1,332,132,1,6,458,458,458,75,175,175,chiefly,great,High,Unrelated,Transparent,Consonant2,12,1,202,2,1,6,595,595,595,76,176,176,strongly,ill,High,Unrelated,Transparent,Consonant2,12,1,374,174,1,6,557,557,557,77,177,177,deafness,calm,High,Unrelated,Transparent,Consonant2,12,1,227,27,1,6,513,513,513,78,178,178,deadly,death,High,Unrelated,Transparent,Consonant2,12,1,277,77,1,6,621,621,621,79,179,179,sickness,waif,High,Unrelated,Transparent,Consonant2,12,1,242,42,1,6,414,414,414,80,180,180,worthless,high,High,Unrelated,Transparent,Consonant2,12,1,247,47,1,6,614,614,614,81,181,181,thankless,stain,High,Unrelated,Transparent,Consonant2,12,1,396,196,1,6,490,490,490,82,182,182,toothless,war,High,Unrelated,Transparent,Consonant1,12,1,14,14,1,6,899,899,899,83,183,183,drawer,tract,High,Unrelated,Transparent,Vowel1,12,1,199,199,1,6,695,695,695,84,184,184,greenish,sculpt,High,Unrelated,Transparent,Vowel1,12,1,134,134,1,6,612,612,612,85,185,185,bookish,self,High,Unrelated,Transparent,Vowel1,12,1,143,143,1,6,564,564,564,86,186,186,drunken,fresh,High,Unrelated,Transparent,Vowel1,12,1,180,180,0,5,599.557,,26,87,187,187,foolish,debt,High,Unrelated,Transparent,Vowel1,12,1,71,71,1,6,530,530,530,88,188,188,freakish,pray,High,Unrelated,Transparent,Vowel1,12,1,8,8,1,6,520,520,520,89,189,189,flaxen,profess,High,Unrelated,Transparent,Vowel1,12,1,165,165,1,6,415,415,415,90,190,190,hunter,soft,High,Unrelated,Transparent,Vowel1,12,1,78,78,1,6,474,474,474,91,191,191,sailor,fast,High,Unrelated,Transparent,Vowel2,12,1,208,8,1,6,525,525,525,92,192,192,tractor,draw,High,Unrelated,Transparent,Vowel2,12,1,218,18,1,6,568,568,568,93,193,193,sculptor,green,High,Unrelated,Transparent,Vowel2,12,1,279,79,1,6,398,398,398,94,194,194,selfish,book,High,Unrelated,Transparent,Vowel2,12,1,371,171,1,6,404,404,404,95,195,195,freshen,drunk,High,Unrelated,Transparent,Vowel2,12,1,231,31,1,6,475,475,475,96,196,196,debtor,fool,High,Unrelated,Transparent,Vowel2,12,1,236,36,1,6,692,692,692,97,197,197,prayer,freak,High,Unrelated,Transparent,Vowel2,12,1,341,141,1,6,541,541,541,98,198,198,professor,flax,High,Unrelated,Transparent,Vowel2,12,1,210,10,1,6,550,550,550,99,199,199,soften,hunt,High,Unrelated,Transparent,Vowel2,12,1,270,70,1,6,460,460,460,100,200,200,fasten,sail,High,Unrelated,Transparent,Vowel1,13,1,53,53,1,6,672,672,672,1,1,1,breadth,bread,Low,Related,Opaque,Consonant1,13,1,106,106,1,6,644,644,644,2,2,2,hearth,hear,Low,Related,Opaque,Consonant1,13,1,50,50,1,6,631,631,631,3,3,3,youth,you,Low,Related,Opaque,Consonant2,13,1,367,167,1,6,427,427,427,4,4,4,kindling,kind,Low,Related,Opaque,Consonant2,13,1,314,114,1,6,623,623,623,5,5,5,dumpling,dump,Low,Related,Opaque,Consonant2,13,1,384,184,1,6,487,487,487,6,6,6,random,ran,Low,Related,Opaque,Consonant2,13,1,250,50,1,6,544,544,544,7,7,7,dearth,dear,Low,Related,Opaque,Consonant1,13,1,164,164,1,6,562,562,562,8,8,8,career,car,Low,Related,Opaque,Vowel1,13,1,157,157,1,6,584,584,584,9,9,9,ratify,rat,Low,Related,Opaque,Vowel1,13,1,185,185,1,6,855,855,855,10,10,10,factory,fact,Low,Related,Opaque,Vowel1,13,1,137,137,1,6,795,795,795,11,11,11,pillory,pill,Low,Related,Opaque,Vowel2,13,1,304,104,0,,599.557,,0,12,12,12,hickory,hick,Low,Related,Opaque,Vowel2,13,1,325,125,1,6,865,865,865,13,13,13,auditory,audit,Low,Related,Opaque,Vowel2,13,1,351,151,1,6,736,736,736,14,14,14,testify,test,Low,Related,Opaque,Vowel1,13,1,45,45,1,6,565,565,565,15,15,15,seedling,seed,Low,Related,Transparent,Consonant1,13,1,165,165,1,6,571,571,571,16,16,16,warmth,warm,Low,Related,Transparent,Consonant1,13,1,54,54,1,6,632,632,632,17,17,17,fourth,four,Low,Related,Transparent,Consonant1,13,1,92,92,1,6,721,721,721,18,18,18,boyhood,boy,Low,Related,Transparent,Consonant1,13,1,48,48,1,6,614,614,614,19,19,19,eleventh,eleven,Low,Related,Transparent,Consonant1,13,1,89,89,1,6,624,624,624,20,20,20,sixth,six,Low,Related,Transparent,Consonant1,13,1,113,113,1,6,622,622,622,21,21,21,duckling,duck,Low,Related,Transparent,Consonant1,13,1,40,40,1,6,532,532,532,22,22,22,stardom,star,Low,Related,Transparent,Consonant1,13,1,115,115,1,6,486,486,486,23,23,23,manhood,man,Low,Related,Transparent,Consonant2,13,1,245,45,1,6,599.557,1183,1183,24,24,24,boredom,bore,Low,Related,Transparent,Consonant2,13,1,345,145,1,6,582,582,582,25,25,25,tenth,ten,Low,Related,Transparent,Consonant2,13,1,315,115,1,6,583,583,583,26,26,26,freedom,free,Low,Related,Transparent,Consonant2,13,1,319,119,1,6,456,456,456,27,27,27,kingdom,king,Low,Related,Transparent,Consonant2,13,1,265,65,1,6,596,596,596,28,28,28,sapling,sap,Low,Related,Transparent,Consonant2,13,1,365,165,1,6,515,515,515,29,29,29,earthling,earth,Low,Related,Transparent,Consonant2,13,1,294,94,1,6,570,570,570,30,30,30,growth,grow,Low,Related,Transparent,Consonant2,13,1,339,139,1,6,789,789,789,31,31,31,serfdom,serf,Low,Related,Transparent,Consonant2,13,1,223,23,1,6,537,537,537,32,32,32,health,heal,Low,Related,Transparent,Consonant1,13,1,79,79,1,6,605,605,605,33,33,33,cashier,cash,Low,Related,Transparent,Vowel1,13,1,61,61,1,6,673,673,673,34,34,34,solidify,solid,Low,Related,Transparent,Vowel1,13,1,98,98,1,6,634,634,634,35,35,35,fortify,fort,Low,Related,Transparent,Vowel1,13,1,47,47,1,6,646,646,646,36,36,36,profiteer,profit,Low,Related,Transparent,Vowel1,13,1,184,184,1,6,607,607,607,37,37,37,directory,direct,Low,Related,Transparent,Vowel1,13,1,102,102,1,6,819,819,819,38,38,38,armory,arm,Low,Related,Transparent,Vowel1,13,1,170,170,1,6,643,643,643,39,39,39,acidify,acid,Low,Related,Transparent,Vowel1,13,1,62,62,1,6,593,593,593,40,40,40,frontier,front,Low,Related,Transparent,Vowel1,13,1,139,139,1,6,532,532,532,41,41,41,humidify,humid,Low,Related,Transparent,Vowel2,13,1,252,52,1,6,568,568,568,42,42,42,classify,class,Low,Related,Transparent,Vowel2,13,1,276,76,1,6,510,510,510,43,43,43,hotelier,hotel,Low,Related,Transparent,Vowel2,13,1,270,70,1,6,580,580,580,44,44,44,marketeer,market,Low,Related,Transparent,Vowel2,13,1,302,102,1,6,628,628,628,45,45,45,justify,just,Low,Related,Transparent,Vowel2,13,1,243,43,1,6,654,654,654,46,46,46,courtier,court,Low,Related,Transparent,Vowel2,13,1,253,53,1,6,832,832,832,47,47,47,nullify,null,Low,Related,Transparent,Vowel2,13,1,216,16,1,6,591,591,591,48,48,48,racketeer,racket,Low,Related,Transparent,Vowel2,13,1,262,62,1,6,579,579,579,49,49,49,musketeer,musket,Low,Related,Transparent,Vowel2,13,1,280,80,1,6,519,519,519,50,50,50,clothier,cloth,Low,Related,Transparent,Vowel1,13,1,17,17,1,6,615,615,615,51,51,51,witness,wit,High,Related,Opaque,Consonant2,13,1,258,58,1,6,674,674,674,52,52,52,imply,imp,High,Related,Opaque,Consonant1,13,1,120,120,1,6,831,831,831,53,53,53,listen,list,High,Related,Opaque,Vowel1,13,1,177,177,1,6,589,589,589,54,54,54,pastor,past,High,Related,Opaque,Vowel1,13,1,20,20,1,6,592,592,592,55,55,55,banish,ban,High,Related,Opaque,Vowel1,13,1,5,5,1,6,599.557,1932,1932,56,56,56,heathen,heath,High,Related,Opaque,Vowel1,13,1,21,21,1,6,624,624,624,57,57,57,mister,mist,High,Related,Opaque,Vowel1,13,1,147,147,0,5,599.557,,590,58,58,58,raptor,rapt,High,Related,Opaque,Vowel2,13,1,399,199,1,6,515,515,515,59,59,59,flower,flow,High,Related,Opaque,Vowel2,13,1,241,41,1,6,830,830,830,60,60,60,traitor,trait,High,Related,Opaque,Vowel2,13,1,251,51,1,6,671,671,671,61,61,61,limber,limb,High,Related,Opaque,Vowel2,13,1,230,30,1,6,699,699,699,62,62,62,hunger,hung,High,Related,Opaque,Vowel2,13,1,240,40,1,6,861,861,861,63,63,63,pollen,poll,High,Related,Opaque,Vowel2,13,1,212,12,1,6,599,599,599,64,64,64,vanish,van,High,Related,Opaque,Vowel1,13,1,99,99,1,6,506,506,506,65,65,65,helpless,help,High,Related,Transparent,Consonant1,13,1,93,93,1,6,657,657,657,66,66,66,chiefly,chief,High,Related,Transparent,Consonant1,13,1,63,63,1,6,474,474,474,67,67,67,strongly,strong,High,Related,Transparent,Consonant1,13,1,109,109,1,6,541,541,541,68,68,68,deafness,deaf,High,Related,Transparent,Consonant1,13,1,59,59,1,6,576,576,576,69,69,69,deadly,dead,High,Related,Transparent,Consonant1,13,1,172,172,1,6,588,588,588,70,70,70,sickness,sick,High,Related,Transparent,Consonant1,13,1,46,46,1,6,622,622,622,71,71,71,worthless,worth,High,Related,Transparent,Consonant1,13,1,80,80,1,6,950,950,950,72,72,72,thankless,thank,High,Related,Transparent,Consonant1,13,1,58,58,1,6,857,857,857,73,73,73,toothless,tooth,High,Related,Transparent,Consonant2,13,1,366,166,1,6,451,451,451,74,74,74,weakness,weak,High,Related,Transparent,Consonant2,13,1,350,150,1,6,607,607,607,75,75,75,greatly,great,High,Related,Transparent,Consonant2,13,1,363,163,1,6,506,506,506,76,76,76,illness,ill,High,Related,Transparent,Consonant2,13,1,235,35,1,6,524,524,524,77,77,77,calmness,calm,High,Related,Transparent,Consonant2,13,1,340,140,1,6,597,597,597,78,78,78,deathlike,death,High,Related,Transparent,Consonant2,13,1,259,59,0,5,599.557,,610,79,79,79,waiflike,waif,High,Related,Transparent,Consonant2,13,1,311,111,1,6,518,518,518,80,80,80,highly,high,High,Related,Transparent,Consonant2,13,1,296,96,1,6,491,491,491,81,81,81,stainless,stain,High,Related,Transparent,Consonant2,13,1,400,200,1,6,531,531,531,82,82,82,warlike,war,High,Related,Transparent,Consonant1,13,1,153,153,1,6,599.557,1079,1079,83,83,83,tractor,tract,High,Related,Transparent,Vowel1,13,1,195,195,1,6,609,609,609,84,84,84,sculptor,sculpt,High,Related,Transparent,Vowel1,13,1,68,68,1,6,555,555,555,85,85,85,selfish,self,High,Related,Transparent,Vowel1,13,1,81,81,1,6,454,454,454,86,86,86,freshen,fresh,High,Related,Transparent,Vowel1,13,1,154,154,1,6,535,535,535,87,87,87,debtor,debt,High,Related,Transparent,Vowel1,13,1,11,11,1,6,549,549,549,88,88,88,prayer,pray,High,Related,Transparent,Vowel1,13,1,129,129,0,5,599.557,,522,89,89,89,professor,profess,High,Related,Transparent,Vowel1,13,1,32,32,1,6,507,507,507,90,90,90,soften,soft,High,Related,Transparent,Vowel1,13,1,136,136,1,6,539,539,539,91,91,91,fasten,fast,High,Related,Transparent,Vowel2,13,1,239,39,1,6,517,517,517,92,92,92,drawer,draw,High,Related,Transparent,Vowel2,13,1,287,87,1,6,537,537,537,93,93,93,greenish,green,High,Related,Transparent,Vowel2,13,1,346,146,1,6,598,598,598,94,94,94,bookish,book,High,Related,Transparent,Vowel2,13,1,271,71,1,6,732,732,732,95,95,95,drunken,drunk,High,Related,Transparent,Vowel2,13,1,309,109,1,6,557,557,557,96,96,96,foolish,fool,High,Related,Transparent,Vowel2,13,1,226,26,1,6,514,514,514,97,97,97,freakish,freak,High,Related,Transparent,Vowel2,13,1,344,144,1,6,654,654,654,98,98,98,flaxen,flax,High,Related,Transparent,Vowel2,13,1,391,191,1,6,681,681,681,99,99,99,hunter,hunt,High,Related,Transparent,Vowel2,13,1,233,33,1,6,539,539,539,100,100,100,sailor,sail,High,Related,Transparent,Vowel2,13,1,268,68,1,6,492,492,492,1,101,101,kindling,bread,Low,Unrelated,Opaque,Consonant2,13,1,331,131,1,6,683,683,683,2,102,102,dumpling,hear,Low,Unrelated,Opaque,Consonant2,13,1,374,174,1,6,525,525,525,3,103,103,random,you,Low,Unrelated,Opaque,Consonant1,13,1,159,159,1,6,625,625,625,4,104,104,breadth,kind,Low,Unrelated,Opaque,Consonant1,13,1,197,197,1,6,618,618,618,5,105,105,hearth,dump,Low,Unrelated,Opaque,Consonant1,13,1,132,132,1,6,579,579,579,6,106,106,youth,ran,Low,Unrelated,Opaque,Consonant1,13,1,198,198,1,6,642,642,642,7,107,107,pillory,dear,Low,Unrelated,Opaque,Consonant2,13,1,364,164,1,6,475,475,475,8,108,108,hickory,car,Low,Unrelated,Opaque,Vowel2,13,1,394,194,1,6,538,538,538,9,109,109,auditory,rat,Low,Unrelated,Opaque,Vowel2,13,1,361,161,1,6,530,530,530,10,110,110,testify,fact,Low,Unrelated,Opaque,Vowel2,13,1,378,178,1,6,551,551,551,11,111,111,dearth,pill,Low,Unrelated,Opaque,Vowel1,13,1,67,67,0,5,599.557,,987,12,112,112,career,hick,Low,Unrelated,Opaque,Vowel1,13,1,97,97,0,5,599.557,,602,13,113,113,ratify,audit,Low,Unrelated,Opaque,Vowel1,13,1,194,194,1,6,545,545,545,14,114,114,factory,test,Low,Unrelated,Opaque,Vowel2,13,1,353,153,1,6,656,656,656,15,115,115,boredom,seed,Low,Unrelated,Transparent,Consonant2,13,1,281,81,1,6,639,639,639,16,116,116,tenth,warm,Low,Unrelated,Transparent,Consonant2,13,1,357,157,1,6,505,505,505,17,117,117,freedom,four,Low,Unrelated,Transparent,Consonant2,13,1,310,110,1,6,534,534,534,18,118,118,kingdom,boy,Low,Unrelated,Transparent,Consonant2,13,1,390,190,1,6,689,689,689,19,119,119,sapling,eleven,Low,Unrelated,Transparent,Consonant2,13,1,371,171,1,6,541,541,541,20,120,120,earthling,six,Low,Unrelated,Transparent,Consonant2,13,1,320,120,1,6,617,617,617,21,121,121,growth,duck,Low,Unrelated,Transparent,Consonant2,13,1,341,141,1,6,502,502,502,22,122,122,serfdom,star,Low,Unrelated,Transparent,Consonant2,13,1,288,88,1,6,520,520,520,23,123,123,health,man,Low,Unrelated,Transparent,Consonant1,13,1,42,42,1,6,796,796,796,24,124,124,seedling,bore,Low,Unrelated,Transparent,Consonant1,13,1,130,130,1,6,578,578,578,25,125,125,warmth,ten,Low,Unrelated,Transparent,Consonant1,13,1,193,193,1,6,599.557,1065,1065,26,126,126,fourth,free,Low,Unrelated,Transparent,Consonant1,13,1,179,179,1,6,502,502,502,27,127,127,boyhood,king,Low,Unrelated,Transparent,Consonant1,13,1,9,9,1,6,661,661,661,28,128,128,eleventh,sap,Low,Unrelated,Transparent,Consonant1,13,1,103,103,1,6,747,747,747,29,129,129,sixth,earth,Low,Unrelated,Transparent,Consonant1,13,1,51,51,1,6,623,623,623,30,130,130,duckling,grow,Low,Unrelated,Transparent,Consonant1,13,1,112,112,1,6,958,958,958,31,131,131,stardom,serf,Low,Unrelated,Transparent,Consonant1,13,1,191,191,1,6,504,504,504,32,132,132,manhood,heal,Low,Unrelated,Transparent,Consonant2,13,1,337,137,1,6,885,885,885,33,133,133,classify,cash,Low,Unrelated,Transparent,Vowel2,13,1,232,32,1,6,564,564,564,34,134,134,hotelier,solid,Low,Unrelated,Transparent,Vowel2,13,1,277,77,1,6,598,598,598,35,135,135,marketeer,fort,Low,Unrelated,Transparent,Vowel2,13,1,380,180,1,6,598,598,598,36,136,136,justify,profit,Low,Unrelated,Transparent,Vowel2,13,1,274,74,1,6,613,613,613,37,137,137,courtier,direct,Low,Unrelated,Transparent,Vowel2,13,1,292,92,1,6,585,585,585,38,138,138,nullify,arm,Low,Unrelated,Transparent,Vowel2,13,1,359,159,1,6,706,706,706,39,139,139,racketeer,acid,Low,Unrelated,Transparent,Vowel2,13,1,389,189,1,6,537,537,537,40,140,140,musketeer,front,Low,Unrelated,Transparent,Vowel2,13,1,234,34,1,6,588,588,588,41,141,141,clothier,humid,Low,Unrelated,Transparent,Vowel1,13,1,175,175,1,6,604,604,604,42,142,142,cashier,class,Low,Unrelated,Transparent,Vowel1,13,1,110,110,1,6,661,661,661,43,143,143,solidify,hotel,Low,Unrelated,Transparent,Vowel1,13,1,124,124,1,6,657,657,657,44,144,144,fortify,market,Low,Unrelated,Transparent,Vowel1,13,1,107,107,1,6,637,637,637,45,145,145,profiteer,just,Low,Unrelated,Transparent,Vowel1,13,1,122,122,1,6,648,648,648,46,146,146,directory,court,Low,Unrelated,Transparent,Vowel1,13,1,100,100,1,6,651,651,651,47,147,147,armory,null,Low,Unrelated,Transparent,Vowel1,13,1,44,44,1,6,757,757,757,48,148,148,acidify,racket,Low,Unrelated,Transparent,Vowel1,13,1,161,161,1,6,937,937,937,49,149,149,frontier,musket,Low,Unrelated,Transparent,Vowel1,13,1,37,37,1,6,572,572,572,50,150,150,humidify,cloth,Low,Unrelated,Transparent,Vowel2,13,1,305,105,1,6,685,685,685,51,151,151,imply,wit,High,Unrelated,Opaque,Consonant1,13,1,173,173,1,6,868,868,868,52,152,152,witness,imp,High,Unrelated,Opaque,Consonant2,13,1,360,160,1,6,922,922,922,53,153,153,flower,list,High,Unrelated,Opaque,Vowel2,13,1,392,192,1,6,490,490,490,54,154,154,traitor,past,High,Unrelated,Opaque,Vowel2,13,1,321,121,1,6,665,665,665,55,155,155,limber,ban,High,Unrelated,Opaque,Vowel2,13,1,291,91,1,6,599.557,1153,1153,56,156,156,hunger,heath,High,Unrelated,Opaque,Vowel2,13,1,269,69,1,6,581,581,581,57,157,157,pollen,mist,High,Unrelated,Opaque,Vowel2,13,1,354,154,0,5,599.557,,593,58,158,158,vanish,rapt,High,Unrelated,Opaque,Vowel1,13,1,148,148,1,6,479,479,479,59,159,159,listen,flow,High,Unrelated,Opaque,Vowel1,13,1,72,72,1,6,668,668,668,60,160,160,pastor,trait,High,Unrelated,Opaque,Vowel1,13,1,190,190,1,6,576,576,576,61,161,161,banish,limb,High,Unrelated,Opaque,Vowel1,13,1,31,31,1,6,682,682,682,62,162,162,heathen,hung,High,Unrelated,Opaque,Vowel1,13,1,90,90,1,6,641,641,641,63,163,163,mister,poll,High,Unrelated,Opaque,Vowel1,13,1,174,174,1,6,572,572,572,64,164,164,raptor,van,High,Unrelated,Opaque,Vowel2,13,1,347,147,1,6,607,607,607,65,165,165,weakness,help,High,Unrelated,Transparent,Consonant2,13,1,386,186,1,6,656,656,656,66,166,166,greatly,chief,High,Unrelated,Transparent,Consonant2,13,1,263,63,1,6,603,603,603,67,167,167,illness,strong,High,Unrelated,Transparent,Consonant2,13,1,266,66,1,6,532,532,532,68,168,168,calmness,deaf,High,Unrelated,Transparent,Consonant2,13,1,289,89,1,6,537,537,537,69,169,169,deathlike,dead,High,Unrelated,Transparent,Consonant2,13,1,255,55,1,6,649,649,649,70,170,170,waiflike,sick,High,Unrelated,Transparent,Consonant2,13,1,379,179,1,6,495,495,495,71,171,171,highly,worth,High,Unrelated,Transparent,Consonant2,13,1,205,5,1,6,445,445,445,72,172,172,stainless,thank,High,Unrelated,Transparent,Consonant2,13,1,398,198,1,6,594,594,594,73,173,173,warlike,tooth,High,Unrelated,Transparent,Consonant1,13,1,119,119,1,6,663,663,663,74,174,174,helpless,weak,High,Unrelated,Transparent,Consonant1,13,1,167,167,1,6,523,523,523,75,175,175,chiefly,great,High,Unrelated,Transparent,Consonant1,13,1,85,85,1,6,831,831,831,76,176,176,strongly,ill,High,Unrelated,Transparent,Consonant1,13,1,88,88,1,6,568,568,568,77,177,177,deafness,calm,High,Unrelated,Transparent,Consonant1,13,1,73,73,1,6,525,525,525,78,178,178,deadly,death,High,Unrelated,Transparent,Consonant1,13,1,39,39,0,5,599.557,,565,79,179,179,sickness,waif,High,Unrelated,Transparent,Consonant1,13,1,181,181,1,6,822,822,822,80,180,180,worthless,high,High,Unrelated,Transparent,Consonant1,13,1,145,145,1,6,566,566,566,81,181,181,thankless,stain,High,Unrelated,Transparent,Consonant1,13,1,19,19,1,6,560,560,560,82,182,182,toothless,war,High,Unrelated,Transparent,Consonant2,13,1,227,27,1,6,658,658,658,83,183,183,drawer,tract,High,Unrelated,Transparent,Vowel2,13,1,318,118,0,5,599.557,,1152,84,184,184,greenish,sculpt,High,Unrelated,Transparent,Vowel2,13,1,328,128,1,6,1018,1018,1018,85,185,185,bookish,self,High,Unrelated,Transparent,Vowel2,13,1,348,148,1,6,559,559,559,86,186,186,drunken,fresh,High,Unrelated,Transparent,Vowel2,13,1,211,11,1,6,615,615,615,87,187,187,foolish,debt,High,Unrelated,Transparent,Vowel2,13,1,203,3,1,6,532,532,532,88,188,188,freakish,pray,High,Unrelated,Transparent,Vowel2,13,1,264,64,1,6,599.557,1963,1963,89,189,189,flaxen,profess,High,Unrelated,Transparent,Vowel2,13,1,332,132,1,6,715,715,715,90,190,190,hunter,soft,High,Unrelated,Transparent,Vowel2,13,1,377,177,1,6,510,510,510,91,191,191,sailor,fast,High,Unrelated,Transparent,Vowel1,13,1,57,57,1,6,713,713,713,92,192,192,tractor,draw,High,Unrelated,Transparent,Vowel1,13,1,86,86,1,6,599,599,599,93,193,193,sculptor,green,High,Unrelated,Transparent,Vowel1,13,1,138,138,1,6,612,612,612,94,194,194,selfish,book,High,Unrelated,Transparent,Vowel1,13,1,36,36,1,6,572,572,572,95,195,195,freshen,drunk,High,Unrelated,Transparent,Vowel1,13,1,12,12,1,6,574,574,574,96,196,196,debtor,fool,High,Unrelated,Transparent,Vowel1,13,1,182,182,1,6,591,591,591,97,197,197,prayer,freak,High,Unrelated,Transparent,Vowel1,13,1,41,41,1,6,599.557,1620,1620,98,198,198,professor,flax,High,Unrelated,Transparent,Vowel1,13,1,117,117,1,6,519,519,519,99,199,199,soften,hunt,High,Unrelated,Transparent,Vowel1,13,1,77,77,1,6,565,565,565,100,200,200,fasten,sail,High,Unrelated,Transparent,Vowel1,14,1,113,113,1,6,613,613,613,1,1,1,breadth,bread,Low,Related,Opaque,Consonant1,14,1,5,5,1,6,748,748,748,2,2,2,hearth,hear,Low,Related,Opaque,Consonant1,14,1,59,59,1,6,545,545,545,3,3,3,youth,you,Low,Related,Opaque,Consonant2,14,1,400,200,1,6,644,644,644,4,4,4,kindling,kind,Low,Related,Opaque,Consonant2,14,1,295,95,1,6,579,579,579,5,5,5,dumpling,dump,Low,Related,Opaque,Consonant2,14,1,203,3,1,6,525,525,525,6,6,6,random,ran,Low,Related,Opaque,Consonant2,14,1,351,151,1,6,664,664,664,7,7,7,dearth,dear,Low,Related,Opaque,Consonant1,14,1,143,143,1,6,709,709,709,8,8,8,career,car,Low,Related,Opaque,Vowel1,14,1,67,67,1,6,602,602,602,9,9,9,ratify,rat,Low,Related,Opaque,Vowel1,14,1,36,36,1,6,635,635,635,10,10,10,factory,fact,Low,Related,Opaque,Vowel1,14,1,177,177,1,6,621,621,621,11,11,11,pillory,pill,Low,Related,Opaque,Vowel2,14,1,356,156,0,5,599.557,,768,12,12,12,hickory,hick,Low,Related,Opaque,Vowel2,14,1,286,86,1,6,792,792,792,13,13,13,auditory,audit,Low,Related,Opaque,Vowel2,14,1,314,114,1,6,711,711,711,14,14,14,testify,test,Low,Related,Opaque,Vowel1,14,1,54,54,1,6,936,936,936,15,15,15,seedling,seed,Low,Related,Transparent,Consonant1,14,1,145,145,1,6,565,565,565,16,16,16,warmth,warm,Low,Related,Transparent,Consonant1,14,1,192,192,1,6,577,577,577,17,17,17,fourth,four,Low,Related,Transparent,Consonant1,14,1,77,77,1,6,653,653,653,18,18,18,boyhood,boy,Low,Related,Transparent,Consonant1,14,1,68,68,1,6,555,555,555,19,19,19,eleventh,eleven,Low,Related,Transparent,Consonant1,14,1,139,139,1,6,476,476,476,20,20,20,sixth,six,Low,Related,Transparent,Consonant1,14,1,102,102,1,6,619,619,619,21,21,21,duckling,duck,Low,Related,Transparent,Consonant1,14,1,161,161,1,6,609,609,609,22,22,22,stardom,star,Low,Related,Transparent,Consonant1,14,1,178,178,1,6,565,565,565,23,23,23,manhood,man,Low,Related,Transparent,Consonant2,14,1,312,112,1,6,790,790,790,24,24,24,boredom,bore,Low,Related,Transparent,Consonant2,14,1,385,185,1,6,504,504,504,25,25,25,tenth,ten,Low,Related,Transparent,Consonant2,14,1,214,14,1,6,496,496,496,26,26,26,freedom,free,Low,Related,Transparent,Consonant2,14,1,279,79,0,5,599.557,,687,27,27,27,kingdom,king,Low,Related,Transparent,Consonant2,14,1,255,55,1,6,737,737,737,28,28,28,sapling,sap,Low,Related,Transparent,Consonant2,14,1,252,52,1,6,480,480,480,29,29,29,earthling,earth,Low,Related,Transparent,Consonant2,14,1,205,5,1,6,573,573,573,30,30,30,growth,grow,Low,Related,Transparent,Consonant2,14,1,278,78,1,6,599.557,1142,1142,31,31,31,serfdom,serf,Low,Related,Transparent,Consonant2,14,1,348,148,1,6,855,855,855,32,32,32,health,heal,Low,Related,Transparent,Consonant1,14,1,99,99,1,6,635,635,635,33,33,33,cashier,cash,Low,Related,Transparent,Vowel1,14,1,34,34,1,6,658,658,658,34,34,34,solidify,solid,Low,Related,Transparent,Vowel1,14,1,137,137,1,6,555,555,555,35,35,35,fortify,fort,Low,Related,Transparent,Vowel1,14,1,70,70,1,6,891,891,891,36,36,36,profiteer,profit,Low,Related,Transparent,Vowel1,14,1,195,195,1,6,881,881,881,37,37,37,directory,direct,Low,Related,Transparent,Vowel1,14,1,57,57,1,6,624,624,624,38,38,38,armory,arm,Low,Related,Transparent,Vowel1,14,1,119,119,1,6,599,599,599,39,39,39,acidify,acid,Low,Related,Transparent,Vowel1,14,1,118,118,1,6,583,583,583,40,40,40,frontier,front,Low,Related,Transparent,Vowel1,14,1,199,199,1,6,642,642,642,41,41,41,humidify,humid,Low,Related,Transparent,Vowel2,14,1,212,12,1,6,567,567,567,42,42,42,classify,class,Low,Related,Transparent,Vowel2,14,1,335,135,1,6,660,660,660,43,43,43,hotelier,hotel,Low,Related,Transparent,Vowel2,14,1,316,116,1,6,751,751,751,44,44,44,marketeer,market,Low,Related,Transparent,Vowel2,14,1,251,51,1,6,520,520,520,45,45,45,justify,just,Low,Related,Transparent,Vowel2,14,1,366,166,1,6,700,700,700,46,46,46,courtier,court,Low,Related,Transparent,Vowel2,14,1,369,169,1,6,564,564,564,47,47,47,nullify,null,Low,Related,Transparent,Vowel2,14,1,336,136,1,6,884,884,884,48,48,48,racketeer,racket,Low,Related,Transparent,Vowel2,14,1,269,69,1,6,636,636,636,49,49,49,musketeer,musket,Low,Related,Transparent,Vowel2,14,1,329,129,1,6,627,627,627,50,50,50,clothier,cloth,Low,Related,Transparent,Vowel1,14,1,26,26,1,6,681,681,681,51,51,51,witness,wit,High,Related,Opaque,Consonant2,14,1,319,119,0,5,599.557,,1152,52,52,52,imply,imp,High,Related,Opaque,Consonant1,14,1,42,42,0,5,599.557,,1045,53,53,53,listen,list,High,Related,Opaque,Vowel1,14,1,101,101,1,6,778,778,778,54,54,54,pastor,past,High,Related,Opaque,Vowel1,14,1,150,150,1,6,782,782,782,55,55,55,banish,ban,High,Related,Opaque,Vowel1,14,1,73,73,1,6,692,692,692,56,56,56,heathen,heath,High,Related,Opaque,Vowel1,14,1,51,51,1,6,535,535,535,57,57,57,mister,mist,High,Related,Opaque,Vowel1,14,1,3,3,1,6,875,875,875,58,58,58,raptor,rapt,High,Related,Opaque,Vowel2,14,1,201,1,1,6,956,956,956,59,59,59,flower,flow,High,Related,Opaque,Vowel2,14,1,227,27,1,6,539,539,539,60,60,60,traitor,trait,High,Related,Opaque,Vowel2,14,1,368,168,1,6,587,587,587,61,61,61,limber,limb,High,Related,Opaque,Vowel2,14,1,204,4,1,6,509,509,509,62,62,62,hunger,hung,High,Related,Opaque,Vowel2,14,1,337,137,1,6,708,708,708,63,63,63,pollen,poll,High,Related,Opaque,Vowel2,14,1,211,11,1,6,791,791,791,64,64,64,vanish,van,High,Related,Opaque,Vowel1,14,1,74,74,1,6,588,588,588,65,65,65,helpless,help,High,Related,Transparent,Consonant1,14,1,151,151,1,6,806,806,806,66,66,66,chiefly,chief,High,Related,Transparent,Consonant1,14,1,39,39,1,6,636,636,636,67,67,67,strongly,strong,High,Related,Transparent,Consonant1,14,1,7,7,1,6,599.557,1085,1085,68,68,68,deafness,deaf,High,Related,Transparent,Consonant1,14,1,127,127,1,6,497,497,497,69,69,69,deadly,dead,High,Related,Transparent,Consonant1,14,1,167,167,1,6,619,619,619,70,70,70,sickness,sick,High,Related,Transparent,Consonant1,14,1,116,116,1,6,534,534,534,71,71,71,worthless,worth,High,Related,Transparent,Consonant1,14,1,6,6,1,6,668,668,668,72,72,72,thankless,thank,High,Related,Transparent,Consonant1,14,1,63,63,1,6,538,538,538,73,73,73,toothless,tooth,High,Related,Transparent,Consonant2,14,1,215,15,1,6,464,464,464,74,74,74,weakness,weak,High,Related,Transparent,Consonant2,14,1,265,65,1,6,563,563,563,75,75,75,greatly,great,High,Related,Transparent,Consonant2,14,1,292,92,1,6,610,610,610,76,76,76,illness,ill,High,Related,Transparent,Consonant2,14,1,350,150,1,6,687,687,687,77,77,77,calmness,calm,High,Related,Transparent,Consonant2,14,1,363,163,1,6,547,547,547,78,78,78,deathlike,death,High,Related,Transparent,Consonant2,14,1,268,68,1,6,916,916,916,79,79,79,waiflike,waif,High,Related,Transparent,Consonant2,14,1,283,83,1,6,608,608,608,80,80,80,highly,high,High,Related,Transparent,Consonant2,14,1,399,199,1,6,611,611,611,81,81,81,stainless,stain,High,Related,Transparent,Consonant2,14,1,344,144,1,6,566,566,566,82,82,82,warlike,war,High,Related,Transparent,Consonant1,14,1,126,126,1,6,760,760,760,83,83,83,tractor,tract,High,Related,Transparent,Vowel1,14,1,111,111,1,6,709,709,709,84,84,84,sculptor,sculpt,High,Related,Transparent,Vowel1,14,1,45,45,1,6,565,565,565,85,85,85,selfish,self,High,Related,Transparent,Vowel1,14,1,144,144,1,6,509,509,509,86,86,86,freshen,fresh,High,Related,Transparent,Vowel1,14,1,183,183,1,6,606,606,606,87,87,87,debtor,debt,High,Related,Transparent,Vowel1,14,1,55,55,1,6,567,567,567,88,88,88,prayer,pray,High,Related,Transparent,Vowel1,14,1,61,61,1,6,817,817,817,89,89,89,professor,profess,High,Related,Transparent,Vowel1,14,1,107,107,1,6,612,612,612,90,90,90,soften,soft,High,Related,Transparent,Vowel1,14,1,10,10,1,6,637,637,637,91,91,91,fasten,fast,High,Related,Transparent,Vowel2,14,1,374,174,1,6,653,653,653,92,92,92,drawer,draw,High,Related,Transparent,Vowel2,14,1,293,93,1,6,690,690,690,93,93,93,greenish,green,High,Related,Transparent,Vowel2,14,1,364,164,1,6,611,611,611,94,94,94,bookish,book,High,Related,Transparent,Vowel2,14,1,306,106,1,6,717,717,717,95,95,95,drunken,drunk,High,Related,Transparent,Vowel2,14,1,249,49,1,6,472,472,472,96,96,96,foolish,fool,High,Related,Transparent,Vowel2,14,1,294,94,1,6,594,594,594,97,97,97,freakish,freak,High,Related,Transparent,Vowel2,14,1,266,66,1,6,587,587,587,98,98,98,flaxen,flax,High,Related,Transparent,Vowel2,14,1,241,41,1,6,645,645,645,99,99,99,hunter,hunt,High,Related,Transparent,Vowel2,14,1,387,187,1,6,504,504,504,100,100,100,sailor,sail,High,Related,Transparent,Vowel2,14,1,273,73,1,6,590,590,590,1,101,101,kindling,bread,Low,Unrelated,Opaque,Consonant2,14,1,280,80,1,6,735,735,735,2,102,102,dumpling,hear,Low,Unrelated,Opaque,Consonant2,14,1,250,50,1,6,920,920,920,3,103,103,random,you,Low,Unrelated,Opaque,Consonant1,14,1,120,120,1,6,519,519,519,4,104,104,breadth,kind,Low,Unrelated,Opaque,Consonant1,14,1,28,28,1,6,793,793,793,5,105,105,hearth,dump,Low,Unrelated,Opaque,Consonant1,14,1,8,8,1,6,716,716,716,6,106,106,youth,ran,Low,Unrelated,Opaque,Consonant1,14,1,85,85,1,6,535,535,535,7,107,107,pillory,dear,Low,Unrelated,Opaque,Consonant2,14,1,277,77,1,6,622,622,622,8,108,108,hickory,car,Low,Unrelated,Opaque,Vowel2,14,1,219,19,1,6,592,592,592,9,109,109,auditory,rat,Low,Unrelated,Opaque,Vowel2,14,1,202,2,1,6,525,525,525,10,110,110,testify,fact,Low,Unrelated,Opaque,Vowel2,14,1,315,115,1,6,631,631,631,11,111,111,dearth,pill,Low,Unrelated,Opaque,Vowel1,14,1,164,164,0,5,599.557,,826,12,112,112,career,hick,Low,Unrelated,Opaque,Vowel1,14,1,153,153,1,6,663,663,663,13,113,113,ratify,audit,Low,Unrelated,Opaque,Vowel1,14,1,114,114,1,6,661,661,661,14,114,114,factory,test,Low,Unrelated,Opaque,Vowel2,14,1,262,62,1,6,723,723,723,15,115,115,boredom,seed,Low,Unrelated,Transparent,Consonant2,14,1,326,126,1,6,570,570,570,16,116,116,tenth,warm,Low,Unrelated,Transparent,Consonant2,14,1,299,99,1,6,667,667,667,17,117,117,freedom,four,Low,Unrelated,Transparent,Consonant2,14,1,247,47,1,6,591,591,591,18,118,118,kingdom,boy,Low,Unrelated,Transparent,Consonant2,14,1,395,195,1,6,610,610,610,19,119,119,sapling,eleven,Low,Unrelated,Transparent,Consonant2,14,1,260,60,1,6,666,666,666,20,120,120,earthling,six,Low,Unrelated,Transparent,Consonant2,14,1,221,21,1,6,649,649,649,21,121,121,growth,duck,Low,Unrelated,Transparent,Consonant2,14,1,357,157,1,6,601,601,601,22,122,122,serfdom,star,Low,Unrelated,Transparent,Consonant2,14,1,354,154,1,6,585,585,585,23,123,123,health,man,Low,Unrelated,Transparent,Consonant1,14,1,81,81,1,6,1006,1006,1006,24,124,124,seedling,bore,Low,Unrelated,Transparent,Consonant1,14,1,78,78,1,6,525,525,525,25,125,125,warmth,ten,Low,Unrelated,Transparent,Consonant1,14,1,138,138,1,6,555,555,555,26,126,126,fourth,free,Low,Unrelated,Transparent,Consonant1,14,1,133,133,1,6,531,531,531,27,127,127,boyhood,king,Low,Unrelated,Transparent,Consonant1,14,1,41,41,1,6,861,861,861,28,128,128,eleventh,sap,Low,Unrelated,Transparent,Consonant1,14,1,60,60,1,6,641,641,641,29,129,129,sixth,earth,Low,Unrelated,Transparent,Consonant1,14,1,69,69,1,6,563,563,563,30,130,130,duckling,grow,Low,Unrelated,Transparent,Consonant1,14,1,80,80,0,5,599.557,,1037,31,131,131,stardom,serf,Low,Unrelated,Transparent,Consonant1,14,1,168,168,1,6,619,619,619,32,132,132,manhood,heal,Low,Unrelated,Transparent,Consonant2,14,1,285,85,1,6,712,712,712,33,133,133,classify,cash,Low,Unrelated,Transparent,Vowel2,14,1,238,38,1,6,597,597,597,34,134,134,hotelier,solid,Low,Unrelated,Transparent,Vowel2,14,1,243,43,1,6,750,750,750,35,135,135,marketeer,fort,Low,Unrelated,Transparent,Vowel2,14,1,382,182,1,6,615,615,615,36,136,136,justify,profit,Low,Unrelated,Transparent,Vowel2,14,1,379,179,1,6,607,607,607,37,137,137,courtier,direct,Low,Unrelated,Transparent,Vowel2,14,1,232,32,1,6,571,571,571,38,138,138,nullify,arm,Low,Unrelated,Transparent,Vowel2,14,1,298,98,1,6,659,659,659,39,139,139,racketeer,acid,Low,Unrelated,Transparent,Vowel2,14,1,313,113,1,6,607,607,607,40,140,140,musketeer,front,Low,Unrelated,Transparent,Vowel2,14,1,288,88,1,6,640,640,640,41,141,141,clothier,humid,Low,Unrelated,Transparent,Vowel1,14,1,9,9,1,6,692,692,692,42,142,142,cashier,class,Low,Unrelated,Transparent,Vowel1,14,1,14,14,1,6,566,566,566,43,143,143,solidify,hotel,Low,Unrelated,Transparent,Vowel1,14,1,122,122,1,6,616,616,616,44,144,144,fortify,market,Low,Unrelated,Transparent,Vowel1,14,1,86,86,1,6,535,535,535,45,145,145,profiteer,just,Low,Unrelated,Transparent,Vowel1,14,1,35,35,1,6,707,707,707,46,146,146,directory,court,Low,Unrelated,Transparent,Vowel1,14,1,33,33,1,6,834,834,834,47,147,147,armory,null,Low,Unrelated,Transparent,Vowel1,14,1,21,21,1,6,727,727,727,48,148,148,acidify,racket,Low,Unrelated,Transparent,Vowel1,14,1,18,18,0,5,599.557,,855,49,149,149,frontier,musket,Low,Unrelated,Transparent,Vowel1,14,1,48,48,1,6,686,686,686,50,150,150,humidify,cloth,Low,Unrelated,Transparent,Vowel2,14,1,397,197,1,6,731,731,731,51,151,151,imply,wit,High,Unrelated,Opaque,Consonant1,14,1,181,181,1,6,599.557,1062,1062,52,152,152,witness,imp,High,Unrelated,Opaque,Consonant2,14,1,398,198,0,5,599.557,,643,53,153,153,flower,list,High,Unrelated,Opaque,Vowel2,14,1,327,127,1,6,602,602,602,54,154,154,traitor,past,High,Unrelated,Opaque,Vowel2,14,1,322,122,1,6,848,848,848,55,155,155,limber,ban,High,Unrelated,Opaque,Vowel2,14,1,317,117,0,5,599.557,,1736,56,156,156,hunger,heath,High,Unrelated,Opaque,Vowel2,14,1,303,103,1,6,612,612,612,57,157,157,pollen,mist,High,Unrelated,Opaque,Vowel2,14,1,297,97,1,6,955,955,955,58,158,158,vanish,rapt,High,Unrelated,Opaque,Vowel1,14,1,155,155,1,6,536,536,536,59,159,159,listen,flow,High,Unrelated,Opaque,Vowel1,14,1,154,154,1,6,591,591,591,60,160,160,pastor,trait,High,Unrelated,Opaque,Vowel1,14,1,149,149,1,6,622,622,622,61,161,161,banish,limb,High,Unrelated,Opaque,Vowel1,14,1,176,176,1,6,869,869,869,62,162,162,heathen,hung,High,Unrelated,Opaque,Vowel1,14,1,115,115,1,6,622,622,622,63,163,163,mister,poll,High,Unrelated,Opaque,Vowel1,14,1,141,141,1,6,564,564,564,64,164,164,raptor,van,High,Unrelated,Opaque,Vowel2,14,1,287,87,1,6,592,592,592,65,165,165,weakness,help,High,Unrelated,Transparent,Consonant2,14,1,383,183,1,6,623,623,623,66,166,166,greatly,chief,High,Unrelated,Transparent,Consonant2,14,1,281,81,1,6,583,583,583,67,167,167,illness,strong,High,Unrelated,Transparent,Consonant2,14,1,231,31,1,6,539,539,539,68,168,168,calmness,deaf,High,Unrelated,Transparent,Consonant2,14,1,264,64,1,6,555,555,555,69,169,169,deathlike,dead,High,Unrelated,Transparent,Consonant2,14,1,242,42,1,6,614,614,614,70,170,170,waiflike,sick,High,Unrelated,Transparent,Consonant2,14,1,360,160,1,6,650,650,650,71,171,171,highly,worth,High,Unrelated,Transparent,Consonant2,14,1,371,171,1,6,732,732,732,72,172,172,stainless,thank,High,Unrelated,Transparent,Consonant