Subject,Trigger,Prime,List,Target,StemID,Correct_Response,Target.RESP,Target.ACC,Target.RT,Target.RT.trm.err
7,1,breadth,List1,bread,1,6,6,1,469,469
7,2,hearth,List1,hear,2,6,6,1,497,497
7,3,youth,List1,you,3,6,6,1,504,504
7,4,kindling,List2,kind,4,6,6,1,667,667
7,5,dumpling,List2,dump,5,6,6,1,502,502
7,6,random,List2,ran,6,6,6,1,1141,1141
7,7,dearth,List2,dear,7,6,6,1,687,687
7,8,career,List1,car,8,6,6,1,827,827
7,9,ratify,List1,rat,9,6,6,1,480,480
7,10,factory,List1,fact,10,6,6,1,607,607
7,11,pillory,List1,pill,11,6,6,1,611,611
7,12,hickory,List2,hick,12,6,6,1,555,555
7,13,auditory,List2,audit,13,6,5,0,441,NA
7,14,testify,List2,test,14,6,6,1,501,501
7,15,seedling,List1,seed,15,6,6,1,533,533
7,16,warmth,List1,warm,16,6,6,1,469,469
7,17,fourth,List1,four,17,6,6,1,439,439
7,18,boyhood,List1,boy,18,6,6,1,430,430
7,19,eleventh,List1,eleven,19,6,6,1,489,489
7,20,sixth,List1,six,20,6,6,1,581,581
7,21,duckling,List1,duck,21,6,6,1,741,741
7,22,stardom,List1,star,22,6,6,1,504,504
7,23,manhood,List1,man,23,6,6,1,436,436
7,24,boredom,List2,bore,24,6,6,1,547,547
7,25,tenth,List2,ten,25,6,6,1,456,456
7,26,freedom,List2,free,26,6,6,1,563,563
7,27,kingdom,List2,king,27,6,6,1,474,474
7,28,sapling,List2,sap,28,6,6,1,605,605
7,29,earthling,List2,earth,29,6,6,1,512,512
7,30,growth,List2,grow,30,6,5,0,374,NA
7,31,serfdom,List2,serf,31,6,6,1,592,592
7,32,health,List2,heal,32,6,6,1,666,666
7,33,cashier,List1,cash,33,6,6,1,497,497
7,34,solidify,List1,solid,34,6,6,1,533,533
7,35,fortify,List1,fort,35,6,6,1,696,696
7,36,profiteer,List1,profit,36,6,6,1,886,886
7,37,directory,List1,direct,37,6,5,0,543,NA
7,38,armory,List1,arm,38,6,6,1,654,654
7,39,acidify,List1,acid,39,6,6,1,577,577
7,40,frontier,List1,front,40,6,6,1,663,663
7,41,humidify,List1,humid,41,6,6,1,400,400
7,42,classify,List2,class,42,6,6,1,478,478
7,43,hotelier,List2,hotel,43,6,6,1,604,604
7,44,marketeer,List2,market,44,6,6,1,541,541
7,45,justify,List2,just,45,6,6,1,506,506
7,46,courtier,List2,court,46,6,6,1,538,538
7,47,nullify,List2,null,47,6,6,1,567,567
7,48,racketeer,List2,racket,48,6,6,1,528,528
7,49,musketeer,List2,musket,49,6,6,1,479,479
7,50,clothier,List2,cloth,50,6,6,1,717,717
7,51,witness,List1,wit,51,6,6,1,572,572
7,52,imply,List2,imp,52,6,5,0,779,NA
7,53,listen,List1,list,53,6,6,1,743,743
7,54,pastor,List1,past,54,6,6,1,549,549
7,55,banish,List1,ban,55,6,6,1,513,513
7,56,heathen,List1,heath,56,6,6,1,475,475
7,57,mister,List1,mist,57,6,6,1,471,471
7,58,raptor,List1,rapt,58,6,6,1,663,663
7,59,flower,List2,flow,59,6,6,1,554,554
7,60,traitor,List2,trait,60,6,6,1,528,528
7,61,limber,List2,limb,61,6,6,1,629,629
7,62,hunger,List2,hung,62,6,5,0,286,NA
7,63,pollen,List2,poll,63,6,6,1,522,522
7,64,vanish,List2,van,64,6,6,1,483,483
7,65,helpless,List1,help,65,6,6,1,544,544
7,66,chiefly,List1,chief,66,6,6,1,509,509
7,67,strongly,List1,strong,67,6,6,1,428,428
7,68,deafness,List1,deaf,68,6,6,1,480,480
7,69,deadly,List1,dead,69,6,6,1,453,453
7,70,sickness,List1,sick,70,6,6,1,471,471
7,71,worthless,List1,worth,71,6,6,1,518,518
7,72,thankless,List1,thank,72,6,6,1,451,451
7,73,toothless,List1,tooth,73,6,6,1,498,498
7,74,weakness,List2,weak,74,6,6,1,461,461
7,75,greatly,List2,great,75,6,6,1,527,527
7,76,illness,List2,ill,76,6,6,1,617,617
7,77,calmness,List2,calm,77,6,6,1,487,487
7,78,deathlike,List2,death,78,6,6,1,742,742
7,79,waiflike,List2,waif,79,6,5,0,649,NA
7,80,highly,List2,high,80,6,6,1,591,591
7,81,stainless,List2,stain,81,6,6,1,534,534
7,82,warlike,List2,war,82,6,6,1,488,488
7,83,tractor,List1,tract,83,6,6,1,872,872
7,84,sculptor,List1,sculpt,84,6,5,0,485,NA
7,85,selfish,List1,self,85,6,6,1,495,495
7,86,freshen,List1,fresh,86,6,6,1,459,459
7,87,debtor,List1,debt,87,6,5,0,555,NA
7,88,prayer,List1,pray,88,6,6,1,491,491
7,89,professor,List1,profess,89,6,6,1,796,796
7,90,soften,List1,soft,90,6,6,1,510,510
7,91,fasten,List1,fast,91,6,6,1,579,579
7,92,drawer,List2,draw,92,6,5,0,503,NA
7,93,greenish,List2,green,93,6,6,1,474,474
7,94,bookish,List2,book,94,6,6,1,485,485
7,95,drunken,List2,drunk,95,6,6,1,538,538
7,96,foolish,List2,fool,96,6,6,1,472,472
7,97,freakish,List2,freak,97,6,6,1,480,480
7,98,flaxen,List2,flax,98,6,6,1,493,493
7,99,hunter,List2,hunt,99,6,6,1,525,525
7,100,sailor,List2,sail,100,6,6,1,476,476
7,101,kindling,List2,bread,1,6,6,1,470,470
7,102,dumpling,List2,hear,2,6,6,1,499,499
7,103,random,List2,you,3,6,6,1,419,419
7,104,breadth,List1,kind,4,6,6,1,591,591
7,105,hearth,List1,dump,5,6,6,1,390,390
7,106,youth,List1,ran,6,6,6,1,561,561
7,107,pillory,List1,dear,7,6,6,1,637,637
7,108,hickory,List2,car,8,6,6,1,491,491
7,109,auditory,List2,rat,9,6,6,1,596,596
7,110,testify,List2,fact,10,6,6,1,478,478
7,111,dearth,List2,pill,11,6,6,1,455,455
7,112,career,List1,hick,12,6,6,1,559,559
7,113,ratify,List1,audit,13,6,5,0,572,NA
7,114,factory,List1,test,14,6,6,1,630,630
7,115,boredom,List2,seed,15,6,6,1,475,475
7,116,tenth,List2,warm,16,6,6,1,473,473
7,117,freedom,List2,four,17,6,5,0,451,NA
7,118,kingdom,List2,boy,18,6,6,1,419,419
7,119,sapling,List2,eleven,19,6,5,0,589,NA
7,120,earthling,List2,six,20,6,6,1,688,688
7,121,growth,List2,duck,21,6,6,1,484,484
7,122,serfdom,List2,star,22,6,6,1,468,468
7,123,health,List2,man,23,6,6,1,522,522
7,124,seedling,List1,bore,24,6,6,1,932,932
7,125,warmth,List1,ten,25,6,6,1,674,674
7,126,fourth,List1,free,26,6,6,1,466,466
7,127,boyhood,List1,king,27,6,6,1,501,501
7,128,eleventh,List1,sap,28,6,6,1,564,564
7,129,sixth,List1,earth,29,6,6,1,495,495
7,130,duckling,List1,grow,30,6,6,1,494,494
7,131,stardom,List1,serf,31,6,5,0,606,NA
7,132,manhood,List1,heal,32,6,6,1,517,517
7,133,classify,List2,cash,33,6,6,1,454,454
7,134,hotelier,List2,solid,34,6,6,1,512,512
7,135,marketeer,List2,fort,35,6,6,1,534,534
7,136,justify,List2,profit,36,6,5,0,620,NA
7,137,courtier,List2,direct,37,6,6,1,653,653
7,138,nullify,List2,arm,38,6,6,1,505,505
7,139,racketeer,List2,acid,39,6,6,1,592,592
7,140,musketeer,List2,front,40,6,6,1,531,531
7,141,clothier,List2,humid,41,6,6,1,614,614
7,142,cashier,List1,class,42,6,6,1,494,494
7,143,solidify,List1,hotel,43,6,6,1,486,486
7,144,fortify,List1,market,44,6,6,1,459,459
7,145,profiteer,List1,just,45,6,6,1,463,463
7,146,directory,List1,court,46,6,6,1,580,580
7,147,armory,List1,null,47,6,6,1,640,640
7,148,acidify,List1,racket,48,6,6,1,620,620
7,149,frontier,List1,musket,49,6,6,1,530,530
7,150,humidify,List1,cloth,50,6,6,1,558,558
7,151,imply,List2,wit,51,6,6,1,564,564
7,152,witness,List1,imp,52,6,5,0,871,NA
7,153,flower,List2,list,53,6,6,1,654,654
7,154,traitor,List2,past,54,6,6,1,488,488
7,155,limber,List2,ban,55,6,5,0,714,NA
7,156,hunger,List2,heath,56,6,6,1,432,432
7,157,pollen,List2,mist,57,6,6,1,522,522
7,158,vanish,List2,rapt,58,6,6,1,606,606
7,159,listen,List1,flow,59,6,5,0,498,NA
7,160,pastor,List1,trait,60,6,6,1,620,620
7,161,banish,List1,limb,61,6,6,1,609,609
7,162,heathen,List1,hung,62,6,6,1,511,511
7,163,mister,List1,poll,63,6,6,1,575,575
7,164,raptor,List1,van,64,6,6,1,478,478
7,165,weakness,List2,help,65,6,6,1,671,671
7,166,greatly,List2,chief,66,6,6,1,629,629
7,167,illness,List2,strong,67,6,6,1,487,487
7,168,calmness,List2,deaf,68,6,6,1,768,768
7,169,deathlike,List2,dead,69,6,6,1,446,446
7,170,waiflike,List2,sick,70,6,6,1,511,511
7,171,highly,List2,worth,71,6,,0,,NA
7,172,stainless,List2,thank,72,6,6,1,601,601
7,173,warlike,List2,tooth,73,6,6,1,505,505
7,174,helpless,List1,weak,74,6,6,1,561,561
7,175,chiefly,List1,great,75,6,6,1,369,369
7,176,strongly,List1,ill,76,6,6,1,576,576
7,177,deafness,List1,calm,77,6,6,1,517,517
7,178,deadly,List1,death,78,6,6,1,388,388
7,179,sickness,List1,waif,79,6,5,0,634,NA
7,180,worthless,List1,high,80,6,6,1,626,626
7,181,thankless,List1,stain,81,6,6,1,495,495
7,182,toothless,List1,war,82,6,6,1,419,419
7,183,drawer,List2,tract,83,6,5,0,580,NA
7,184,greenish,List2,sculpt,84,6,6,1,611,611
7,185,bookish,List2,self,85,6,6,1,518,518
7,186,drunken,List2,fresh,86,6,6,1,594,594
7,187,foolish,List2,debt,87,6,6,1,596,596
7,188,freakish,List2,pray,88,6,6,1,500,500
7,189,flaxen,List2,profess,89,6,6,1,441,441
7,190,hunter,List2,soft,90,6,6,1,498,498
7,191,sailor,List2,fast,91,6,6,1,509,509
7,192,tractor,List1,draw,92,6,6,1,431,431
7,193,sculptor,List1,green,93,6,6,1,523,523
7,194,selfish,List1,book,94,6,6,1,676,676
7,195,freshen,List1,drunk,95,6,6,1,448,448
7,196,debtor,List1,fool,96,6,6,1,542,542
7,197,prayer,List1,freak,97,6,6,1,491,491
7,198,professor,List1,flax,98,6,6,1,492,492
7,199,soften,List1,hunt,99,6,6,1,652,652
7,200,fasten,List1,sail,100,6,6,1,640,640
7,245,candify,List1,cand,106,5,5,1,803,803
7,245,reindeer,List2,reind,121,5,5,1,1226,NA
7,245,territory,List2,territ,111,5,5,1,561,561
7,245,terrify,List1,terr,140,5,5,1,772,772
7,245,dandify,List1,dand,117,5,5,1,541,541
7,245,droning,List1,dron,121,5,5,1,509,509
7,245,lopping,List1,lopp,148,5,5,1,598,598
7,245,forcing,List1,forc,127,5,5,1,678,678
7,245,parading,List1,parad,150,5,5,1,646,646
7,245,gouging,List1,goug,144,5,6,0,598,NA
7,245,fumify,List1,fum,129,5,5,1,574,574
7,245,competing,List1,compet,113,5,5,1,688,688
7,245,amplifier,List1,amplif,101,5,5,1,681,681
7,245,blaming,List1,blam,105,5,5,1,506,506
7,245,territory,List1,territ,141,5,5,1,578,578
7,245,arising,List1,aris,104,5,5,1,523,523
7,245,comparing,List1,compar,112,5,5,1,771,771
7,245,garaging,List1,garag,142,5,5,1,572,572
7,245,nippier,List1,nipp,133,5,6,0,501,NA
7,245,forging,List1,forg,128,5,5,1,664,664
7,245,stratify,List1,strat,139,5,5,1,712,712
7,245,culpatory,List1,culpat,116,5,5,1,625,625
7,245,lonelier,List1,lonel,131,5,5,1,515,515
7,245,purifier,List1,purif,137,5,6,0,421,NA
7,245,flimsier,List1,flims,126,5,6,0,454,NA
7,245,crating,List1,crat,115,5,5,1,527,527
7,245,clarify,List1,clar,109,5,6,0,337,NA
7,245,ropier,List1,rop,138,5,6,0,346,NA
7,245,nuttier,List1,nutt,134,5,6,0,546,NA
7,245,clumsier,List1,clums,110,5,5,1,666,666
7,245,hiking,List1,hik,146,5,5,1,667,667
7,245,felicify,List1,felic,125,5,5,1,662,662
7,245,amusing,List1,amus,102,5,5,1,567,567
7,245,punitory,List1,punit,136,5,5,1,824,824
7,245,emulatory,List1,emulat,123,5,5,1,465,465
7,245,grating,List1,grat,145,5,5,1,729,729
7,245,hortatory,List1,hortat,130,5,5,1,489,489
7,245,merging,List1,merg,149,5,5,1,553,553
7,245,certify,List1,cert,108,5,5,1,562,562
7,245,dizzier,List1,dizz,120,5,5,1,858,858
7,245,emptier,List1,empt,122,5,5,1,619,619
7,245,dinkier,List1,dink,119,5,5,1,716,716
7,245,apprising,List1,appris,103,5,5,1,581,581
7,245,dilatory,List1,dilat,118,5,5,1,654,654
7,245,peskier,List1,pesk,135,5,6,0,520,NA
7,245,gliding,List1,glid,143,5,5,1,969,969
7,245,emulsify,List1,emuls,124,5,5,1,491,491
7,245,conditory,List1,condit,114,5,6,0,519,NA
7,245,impeding,List1,imped,147,5,5,1,872,872
7,245,comelier,List1,comel,111,5,5,1,761,761
7,245,monitory,List1,monit,132,5,5,1,538,538
7,245,capturing,List1,captur,107,5,5,1,578,578
7,245,piscatory,List2,piscat,144,5,5,1,561,561
7,245,celestify,List2,celest,114,5,5,1,474,474
7,245,senatory,List2,senat,131,5,5,1,613,613
7,245,mutineer,List2,mutin,113,5,5,1,542,542
7,245,calcify,List2,calc,134,5,5,1,494,494
7,245,sensify,List2,sens,119,5,5,1,704,704
7,245,curatory,List2,curat,108,5,5,1,576,576
7,245,arbory,List2,arb,107,5,5,1,633,633
7,245,domineer,List2,domin,112,5,5,1,514,514
7,245,stratify,List2,strat,141,5,6,0,915,NA
7,245,dormitory,List2,dormit,109,5,5,1,547,547
7,245,darling,List2,dar,145,5,5,1,635,635
7,245,monitory,List2,monit,126,5,5,1,468,468
7,245,refectory,List2,refect,129,5,6,0,684,NA
7,245,chevalier,List2,cheval,103,5,5,1,543,543
7,245,cavalier,List2,caval,101,5,6,0,751,NA
7,245,veneer,List2,ven,120,5,5,1,599,599
7,245,daintify,List2,daint,116,5,5,1,491,491
7,245,alkalify,List2,alkal,133,5,5,1,812,812
7,245,capacify,List2,capac,136,5,5,1,765,765
7,245,carbineer,List2,carbin,122,5,5,1,597,597
7,245,carnify,List2,carn,150,5,5,1,696,696
7,245,wisdom,List2,wis,147,5,5,1,601,601
7,245,adulatory,List2,adulat,105,5,5,1,529,529
7,245,revisory,List2,revis,130,5,5,1,770,770
7,245,signatory,List2,signat,132,5,5,1,634,634
7,245,modify,List2,mod,139,5,5,1,610,610
7,245,chandelier,List2,chandel,104,5,5,1,475,475
7,245,sibling,List2,sib,146,5,6,0,508,NA
7,245,rectory,List2,rect,128,5,5,1,726,726
7,245,excretory,List2,excret,124,5,5,1,1119,1119
7,245,dandify,List2,dand,117,5,6,0,824,NA
7,245,amatory,List2,amat,106,5,5,1,569,569
7,245,purgatory,List2,purgat,127,5,5,1,859,859
7,245,crematory,List2,cremat,149,5,5,1,676,676
7,245,olfactory,List2,olfact,110,5,5,1,628,628
7,245,terrify,List2,terr,142,5,5,1,620,620
7,245,donatory,List2,donat,123,5,5,1,559,559
7,245,prettify,List2,prett,140,5,6,0,720,NA
7,245,corporify,List2,corpor,115,5,5,1,697,697
7,245,damnatory,List2,damnat,143,5,5,1,537,537
7,245,diabolify,List2,diabol,137,5,5,1,594,594
7,245,calorify,List2,calor,135,5,5,1,578,578
7,245,brigadier,List2,brigad,102,5,5,1,517,517
7,245,fructify,List2,fruct,118,5,5,1,637,637
7,245,horrify,List2,horr,138,5,5,1,654,654
7,245,gustatory,List2,gustat,125,5,5,1,502,502
7,245,offertory,List2,offert,148,5,5,1,687,687
7,246,monger,List2,mong,177,5,5,1,594,594
7,246,trembly,List1,tremb,175,5,5,1,677,677
7,246,haziness,List1,hazi,180,5,5,1,943,943
7,246,barmen,List1,barm,151,5,5,1,793,793
7,246,fifteen,List1,fifte,154,5,5,1,505,505
7,246,worsen,List1,wors,159,5,5,1,538,538
7,246,aviator,List1,aviat,185,5,5,1,716,716
7,246,guinness,List1,guin,179,5,6,0,516,NA
7,246,literator,List1,literat,191,5,5,1,783,783
7,246,baroness,List1,baro,177,5,6,0,504,NA
7,246,tremor,List1,trem,195,5,5,1,874,874
7,246,alluminor,List1,allumin,183,5,5,1,698,698
7,246,bimonthly,List1,bimonth,165,5,5,1,700,700
7,246,variably,List1,variab,176,5,5,1,684,684
7,246,censor,List1,cens,186,5,5,1,740,740
7,246,angrily,List1,angri,164,5,5,1,572,572
7,246,writhen,List1,writh,160,5,5,1,565,565
7,246,brazen,List1,braz,152,5,5,1,615,615
7,246,advisor,List1,advis,182,5,5,1,681,681
7,246,tolerably,List1,tolerab,198,5,5,1,602,602
7,246,glibly,List1,glib,169,5,5,1,707,707
7,246,emperor,List1,emper,189,5,5,1,588,588
7,246,skirmish,List1,skirm,163,5,5,1,1285,NA
7,246,recaptor,List1,recapt,193,5,5,1,534,534
7,246,accusor,List1,accus,181,5,5,1,656,656
7,246,paritor,List1,parit,192,5,5,1,656,656
7,246,volubly,List1,volub,199,5,5,1,377,377
7,246,equably,List1,equab,168,5,5,1,593,593
7,246,happen,List1,happ,156,5,5,1,636,636
7,246,gotten,List1,gott,155,5,5,1,477,477
7,246,author,List1,auth,184,5,5,1,573,573
7,246,terribly,List1,terrib,197,5,5,1,598,598
7,246,cursor,List1,curs,187,5,5,1,664,664
7,246,spindly,List1,spind,172,5,5,1,680,680
7,246,dishevely,List1,disheve,167,5,5,1,808,808
7,246,treacly,List1,treac,174,5,5,1,504,504
7,246,stolen,List1,stol,158,5,5,1,673,673
7,246,colly,List1,col,166,5,5,1,706,706
7,246,humbly,List1,humb,170,5,5,1,754,754
7,246,devisor,List1,devis,188,5,6,0,450,NA
7,246,furbish,List1,furb,162,5,5,1,707,707
7,246,deaconess,List1,deaco,178,5,5,1,555,555
7,246,redactor,List1,redact,194,5,5,1,619,619
7,246,blemish,List1,blem,161,5,5,1,653,653
7,246,guarantor,List1,guarant,190,5,5,1,830,830
7,246,vector,List1,vect,196,5,5,1,671,671
7,246,wiggly,List1,wigg,200,5,5,1,920,920
7,246,rally,List1,ral,171,5,5,1,625,625
7,246,suitably,List1,suitab,173,5,5,1,570,570
7,246,kitchen,List1,kitch,157,5,5,1,802,802
7,246,broken,List1,brok,153,5,5,1,611,611
7,246,cluster,List2,clust,183,5,6,0,596,NA
7,246,aviator,List2,aviat,162,5,5,1,588,588
7,246,realtor,List2,realt,166,5,5,1,620,620
7,246,burden,List2,burd,168,5,6,0,461,NA
7,246,snakish,List2,snak,193,5,5,1,636,636
7,246,dander,List2,dand,182,5,5,1,701,701
7,246,comply,List2,comp,188,5,5,1,486,486
7,246,tinder,List2,tind,200,5,5,1,663,663
7,246,birth,List2,bir,186,5,6,0,432,NA
7,246,spindly,List2,spind,190,5,6,0,728,NA
7,246,flemish,List2,flem,158,5,5,1,585,585
7,246,brackish,List2,brack,192,5,6,0,562,NA
7,246,eternish,List2,etern,151,5,5,1,610,610
7,246,purply,List2,purp,189,5,5,1,628,628
7,246,sprightly,List2,spright,156,5,6,0,621,NA
7,246,varnish,List2,varn,160,5,5,1,1167,1167
7,246,creator,List2,creat,165,5,5,1,568,568
7,246,women,List2,wom,199,5,5,1,673,673
7,246,brinish,List2,brin,157,5,5,1,586,586
7,246,mirror,List2,mirr,197,5,5,1,1122,1122
7,246,belly,List2,bel,187,5,5,1,668,668
7,246,smoulder,List2,smould,173,5,6,0,446,NA
7,246,spoken,List2,spok,170,5,5,1,598,598
7,246,tamper,List2,tamp,175,5,5,1,543,543
7,246,simply,List2,simp,153,5,5,1,561,561
7,246,bachelor,List2,bachel,163,5,6,0,683,NA
7,246,aspirator,List2,aspirat,161,5,5,1,572,572
7,246,sprawly,List2,spraw,191,5,5,1,1765,NA
7,246,spinster,List2,spinst,174,5,5,1,717,717
7,246,betroth,List2,betro,185,5,5,1,494,494
7,246,condor,List2,cond,194,5,5,1,527,527
7,246,stamen,List2,stam,171,5,5,1,608,608
7,246,skirmish,List2,skirm,159,5,5,1,536,536
7,246,curator,List2,curat,195,5,5,1,601,601
7,246,trouser,List2,trous,172,5,5,1,921,921
7,246,broiden,List2,broid,167,5,5,1,740,740
7,246,brambly,List2,bramb,154,5,5,1,781,781
7,246,harbor,List2,harb,196,5,6,0,559,NA
7,246,grizzly,List2,grizz,155,5,6,0,543,NA
7,246,spearmen,List2,spearm,169,5,5,1,809,809
7,246,guinness,List2,guin,152,5,6,0,699,NA
7,246,jasper,List2,jasp,181,5,5,1,554,554
7,246,thunder,List2,thund,176,5,5,1,843,843
7,246,lichen,List2,lich,198,5,5,1,1195,1195
7,246,pamper,List2,pamp,178,5,5,1,630,630
7,246,corridor,List2,corrid,164,5,6,0,631,NA
7,246,clyster,List2,clyst,184,5,5,1,575,575
7,246,hamper,List2,hamp,180,5,5,1,584,584
7,246,semester,List2,semest,179,5,5,1,640,640
8,1,breadth,List1,bread,1,6,6,1,618,618
8,2,hearth,List1,hear,2,6,6,1,645,645
8,3,youth,List1,you,3,6,6,1,531,531
8,4,kindling,List2,kind,4,6,6,1,406,406
8,5,dumpling,List2,dump,5,6,6,1,835,835
8,6,random,List2,ran,6,6,6,1,483,483
8,7,dearth,List2,dear,7,6,6,1,545,545
8,8,career,List1,car,8,6,6,1,694,694
8,9,ratify,List1,rat,9,6,6,1,584,584
8,10,factory,List1,fact,10,6,6,1,900,900
8,11,pillory,List1,pill,11,6,6,1,720,720
8,12,hickory,List2,hick,12,6,6,1,448,448
8,13,auditory,List2,audit,13,6,6,1,647,647
8,14,testify,List2,test,14,6,6,1,481,481
8,15,seedling,List1,seed,15,6,6,1,467,467
8,16,warmth,List1,warm,16,6,6,1,492,492
8,17,fourth,List1,four,17,6,6,1,638,638
8,18,boyhood,List1,boy,18,6,6,1,445,445
8,19,eleventh,List1,eleven,19,6,6,1,574,574
8,20,sixth,List1,six,20,6,6,1,494,494
8,21,duckling,List1,duck,21,6,6,1,465,465
8,22,stardom,List1,star,22,6,6,1,439,439
8,23,manhood,List1,man,23,6,6,1,505,505
8,24,boredom,List2,bore,24,6,6,1,628,628
8,25,tenth,List2,ten,25,6,6,1,470,470
8,26,freedom,List2,free,26,6,6,1,499,499
8,27,kingdom,List2,king,27,6,6,1,741,741
8,28,sapling,List2,sap,28,6,6,1,587,587
8,29,earthling,List2,earth,29,6,6,1,474,474
8,30,growth,List2,grow,30,6,6,1,501,501
8,31,serfdom,List2,serf,31,6,6,1,605,605
8,32,health,List2,heal,32,6,6,1,598,598
8,33,cashier,List1,cash,33,6,6,1,631,631
8,34,solidify,List1,solid,34,6,6,1,484,484
8,35,fortify,List1,fort,35,6,6,1,856,856
8,36,profiteer,List1,profit,36,6,6,1,607,607
8,37,directory,List1,direct,37,6,6,1,652,652
8,38,armory,List1,arm,38,6,6,1,616,616
8,39,acidify,List1,acid,39,6,6,1,642,642
8,40,frontier,List1,front,40,6,6,1,667,667
8,41,humidify,List1,humid,41,6,6,1,607,607
8,42,classify,List2,class,42,6,6,1,663,663
8,43,hotelier,List2,hotel,43,6,6,1,733,733
8,44,marketeer,List2,market,44,6,6,1,511,511
8,45,justify,List2,just,45,6,6,1,462,462
8,46,courtier,List2,court,46,6,6,1,481,481
8,47,nullify,List2,null,47,6,6,1,834,834
8,48,racketeer,List2,racket,48,6,6,1,484,484
8,49,musketeer,List2,musket,49,6,6,1,577,577
8,50,clothier,List2,cloth,50,6,6,1,696,696
8,51,witness,List1,wit,51,6,6,1,729,729
8,52,imply,List2,imp,52,6,6,1,669,669
8,53,listen,List1,list,53,6,6,1,516,516
8,54,pastor,List1,past,54,6,5,0,720,NA
8,55,banish,List1,ban,55,6,6,1,634,634
8,56,heathen,List1,heath,56,6,6,1,1044,1044
8,57,mister,List1,mist,57,6,6,1,655,655
8,58,raptor,List1,rapt,58,6,6,1,930,930
8,59,flower,List2,flow,59,6,6,1,611,611
8,60,traitor,List2,trait,60,6,6,1,589,589
8,61,limber,List2,limb,61,6,6,1,556,556
8,62,hunger,List2,hung,62,6,6,1,606,606
8,63,pollen,List2,poll,63,6,5,0,889,NA
8,64,vanish,List2,van,64,6,6,1,589,589
8,65,helpless,List1,help,65,6,6,1,497,497
8,66,chiefly,List1,chief,66,6,6,1,562,562
8,67,strongly,List1,strong,67,6,6,1,543,543
8,68,deafness,List1,deaf,68,6,6,1,407,407
8,69,deadly,List1,dead,69,6,6,1,497,497
8,70,sickness,List1,sick,70,6,6,1,671,671
8,71,worthless,List1,worth,71,6,6,1,477,477
8,72,thankless,List1,thank,72,6,6,1,791,791
8,73,toothless,List1,tooth,73,6,6,1,610,610
8,74,weakness,List2,weak,74,6,6,1,663,663
8,75,greatly,List2,great,75,6,6,1,475,475
8,76,illness,List2,ill,76,6,6,1,464,464
8,77,calmness,List2,calm,77,6,6,1,382,382
8,78,deathlike,List2,death,78,6,6,1,466,466
8,79,waiflike,List2,waif,79,6,5,0,505,NA
8,80,highly,List2,high,80,6,6,1,381,381
8,81,stainless,List2,stain,81,6,6,1,520,520
8,82,warlike,List2,war,82,6,6,1,390,390
8,83,tractor,List1,tract,83,6,5,0,586,NA
8,84,sculptor,List1,sculpt,84,6,6,1,689,689
8,85,selfish,List1,self,85,6,6,1,557,557
8,86,freshen,List1,fresh,86,6,6,1,477,477
8,87,debtor,List1,debt,87,6,6,1,653,653
8,88,prayer,List1,pray,88,6,6,1,486,486
8,89,professor,List1,profess,89,6,5,0,830,NA
8,90,soften,List1,soft,90,6,6,1,577,577
8,91,fasten,List1,fast,91,6,6,1,704,704
8,92,drawer,List2,draw,92,6,6,1,613,613
8,93,greenish,List2,green,93,6,6,1,561,561
8,94,bookish,List2,book,94,6,6,1,404,404
8,95,drunken,List2,drunk,95,6,6,1,576,576
8,96,foolish,List2,fool,96,6,6,1,488,488
8,97,freakish,List2,freak,97,6,6,1,442,442
8,98,flaxen,List2,flax,98,6,6,1,483,483
8,99,hunter,List2,hunt,99,6,6,1,596,596
8,100,sailor,List2,sail,100,6,6,1,576,576
8,101,kindling,List2,bread,1,6,6,1,490,490
8,102,dumpling,List2,hear,2,6,6,1,476,476
8,103,random,List2,you,3,6,6,1,484,484
8,104,breadth,List1,kind,4,6,6,1,523,523
8,105,hearth,List1,dump,5,6,6,1,594,594
8,106,youth,List1,ran,6,6,6,1,597,597
8,107,pillory,List1,dear,7,6,6,1,504,504
8,108,hickory,List2,car,8,6,6,1,593,593
8,109,auditory,List2,rat,9,6,6,1,440,440
8,110,testify,List2,fact,10,6,6,1,636,636
8,111,dearth,List2,pill,11,6,6,1,517,517
8,112,career,List1,hick,12,6,6,1,887,887
8,113,ratify,List1,audit,13,6,6,1,666,666
8,114,factory,List1,test,14,6,6,1,605,605
8,115,boredom,List2,seed,15,6,6,1,478,478
8,116,tenth,List2,warm,16,6,6,1,465,465
8,117,freedom,List2,four,17,6,6,1,597,597
8,118,kingdom,List2,boy,18,6,6,1,547,547
8,119,sapling,List2,eleven,19,6,6,1,491,491
8,120,earthling,List2,six,20,6,6,1,527,527
8,121,growth,List2,duck,21,6,6,1,623,623
8,122,serfdom,List2,star,22,6,6,1,560,560
8,123,health,List2,man,23,6,6,1,391,391
8,124,seedling,List1,bore,24,6,6,1,501,501
8,125,warmth,List1,ten,25,6,6,1,555,555
8,126,fourth,List1,free,26,6,6,1,687,687
8,127,boyhood,List1,king,27,6,6,1,688,688
8,128,eleventh,List1,sap,28,6,6,1,916,916
8,129,sixth,List1,earth,29,6,6,1,619,619
8,130,duckling,List1,grow,30,6,6,1,522,522
8,131,stardom,List1,serf,31,6,5,0,786,NA
8,132,manhood,List1,heal,32,6,6,1,486,486
8,133,classify,List2,cash,33,6,6,1,539,539
8,134,hotelier,List2,solid,34,6,6,1,539,539
8,135,marketeer,List2,fort,35,6,6,1,599,599
8,136,justify,List2,profit,36,6,6,1,526,526
8,137,courtier,List2,direct,37,6,6,1,892,892
8,138,nullify,List2,arm,38,6,6,1,569,569
8,139,racketeer,List2,acid,39,6,6,1,771,771
8,140,musketeer,List2,front,40,6,6,1,455,455
8,141,clothier,List2,humid,41,6,6,1,521,521
8,142,cashier,List1,class,42,6,6,1,595,595
8,143,solidify,List1,hotel,43,6,6,1,595,595
8,144,fortify,List1,market,44,6,6,1,467,467
8,145,profiteer,List1,just,45,6,6,1,572,572
8,146,directory,List1,court,46,6,6,1,704,704
8,147,armory,List1,null,47,6,5,0,885,NA
8,148,acidify,List1,racket,48,6,6,1,495,495
8,149,frontier,List1,musket,49,6,5,0,1044,NA
8,150,humidify,List1,cloth,50,6,6,1,626,626
8,151,imply,List2,wit,51,6,6,1,547,547
8,152,witness,List1,imp,52,6,6,1,908,908
8,153,flower,List2,list,53,6,6,1,565,565
8,154,traitor,List2,past,54,6,6,1,487,487
8,155,limber,List2,ban,55,6,6,1,599,599
8,156,hunger,List2,heath,56,6,6,1,490,490
8,157,pollen,List2,mist,57,6,6,1,556,556
8,158,vanish,List2,rapt,58,6,6,1,549,549
8,159,listen,List1,flow,59,6,6,1,626,626
8,160,pastor,List1,trait,60,6,6,1,668,668
8,161,banish,List1,limb,61,6,6,1,643,643
8,162,heathen,List1,hung,62,6,6,1,666,666
8,163,mister,List1,poll,63,6,6,1,1353,NA
8,164,raptor,List1,van,64,6,6,1,685,685
8,165,weakness,List2,help,65,6,6,1,434,434
8,166,greatly,List2,chief,66,6,6,1,526,526
8,167,illness,List2,strong,67,6,6,1,478,478
8,168,calmness,List2,deaf,68,6,6,1,563,563
8,169,deathlike,List2,dead,69,6,6,1,571,571
8,170,waiflike,List2,sick,70,6,6,1,699,699
8,171,highly,List2,worth,71,6,6,1,479,479
8,172,stainless,List2,thank,72,6,6,1,529,529
8,173,warlike,List2,tooth,73,6,6,1,439,439
8,174,helpless,List1,weak,74,6,6,1,661,661
8,175,chiefly,List1,great,75,6,6,1,451,451
8,176,strongly,List1,ill,76,6,6,1,628,628
8,177,deafness,List1,calm,77,6,6,1,608,608
8,178,deadly,List1,death,78,6,6,1,871,871
8,179,sickness,List1,waif,79,6,5,0,1206,NA
8,180,worthless,List1,high,80,6,6,1,588,588
8,181,thankless,List1,stain,81,6,6,1,525,525
8,182,toothless,List1,war,82,6,6,1,543,543
8,183,drawer,List2,tract,83,6,6,1,498,498
8,184,greenish,List2,sculpt,84,6,6,1,742,742
8,185,bookish,List2,self,85,6,6,1,452,452
8,186,drunken,List2,fresh,86,6,6,1,503,503
8,187,foolish,List2,debt,87,6,6,1,491,491
8,188,freakish,List2,pray,88,6,6,1,518,518
8,189,flaxen,List2,profess,89,6,6,1,821,821
8,190,hunter,List2,soft,90,6,6,1,624,624
8,191,sailor,List2,fast,91,6,6,1,551,551
8,192,tractor,List1,draw,92,6,6,1,510,510
8,193,sculptor,List1,green,93,6,6,1,566,566
8,194,selfish,List1,book,94,6,6,1,544,544
8,195,freshen,List1,drunk,95,6,6,1,585,585
8,196,debtor,List1,fool,96,6,6,1,462,462
8,197,prayer,List1,freak,97,6,6,1,578,578
8,198,professor,List1,flax,98,6,6,1,547,547
8,199,soften,List1,hunt,99,6,6,1,525,525
8,200,fasten,List1,sail,100,6,6,1,629,629
8,245,nuttier,List1,nutt,134,5,5,1,105,NA
8,245,amplifier,List1,amplif,101,5,5,1,708,708
8,245,blaming,List1,blam,105,5,5,1,788,788
8,245,garaging,List1,garag,142,5,5,1,772,772
8,245,apprising,List1,appris,103,5,5,1,754,754
8,245,emulsify,List1,emuls,124,5,5,1,618,618
8,245,arising,List1,aris,104,5,5,1,739,739
8,245,comparing,List1,compar,112,5,5,1,635,635
8,245,certify,List1,cert,108,5,5,1,692,692
8,245,territory,List1,territ,141,5,5,1,622,622
8,245,dinkier,List1,dink,119,5,6,0,486,NA
8,245,gouging,List1,goug,144,5,5,1,638,638
8,245,amusing,List1,amus,102,5,5,1,558,558
8,245,stratify,List1,strat,139,5,5,1,728,728
8,245,dizzier,List1,dizz,120,5,5,1,553,553
8,245,lopping,List1,lopp,148,5,5,1,609,609
8,245,hortatory,List1,hortat,130,5,5,1,561,561
8,245,competing,List1,compet,113,5,5,1,681,681
8,245,monitory,List1,monit,132,5,5,1,723,723
8,245,lonelier,List1,lonel,131,5,5,1,692,692
8,245,emulatory,List1,emulat,123,5,5,1,733,733
8,245,peskier,List1,pesk,135,5,6,0,535,NA
8,245,fumify,List1,fum,129,5,5,1,641,641
8,245,comelier,List1,comel,111,5,5,1,529,529
8,245,hiking,List1,hik,146,5,5,1,650,650
8,245,crating,List1,crat,115,5,5,1,554,554
8,245,punitory,List1,punit,136,5,5,1,620,620
8,245,forging,List1,forg,128,5,5,1,606,606
8,245,purifier,List1,purif,137,5,5,1,694,694
8,245,clumsier,List1,clums,110,5,5,1,551,551
8,245,dandify,List1,dand,117,5,5,1,688,688
8,245,parading,List1,parad,150,5,5,1,633,633
8,245,merging,List1,merg,149,5,5,1,473,473
8,245,dilatory,List1,dilat,118,5,5,1,635,635
8,245,terrify,List1,terr,140,5,5,1,523,523
8,245,clarify,List1,clar,109,5,5,1,532,532
8,245,nippier,List1,nipp,133,5,5,1,725,725
8,245,ropier,List1,rop,138,5,5,1,1213,NA
8,245,impeding,List1,imped,147,5,5,1,790,790
8,245,culpatory,List1,culpat,116,5,5,1,671,671
8,245,droning,List1,dron,121,5,5,1,889,889
8,245,conditory,List1,condit,114,5,5,1,601,601
8,245,grating,List1,grat,145,5,5,1,826,826
8,245,flimsier,List1,flims,126,5,5,1,700,700
8,245,emptier,List1,empt,122,5,5,1,621,621
8,245,candify,List1,cand,106,5,5,1,637,637
8,245,capturing,List1,captur,107,5,5,1,647,647
8,245,gliding,List1,glid,143,5,5,1,991,991
8,245,felicify,List1,felic,125,5,5,1,657,657
8,245,forcing,List1,forc,127,5,6,0,552,NA
8,245,modify,List2,mod,139,5,6,0,649,NA
8,245,calorify,List2,calor,135,5,5,1,602,602
8,245,crematory,List2,cremat,149,5,5,1,666,666
8,245,piscatory,List2,piscat,144,5,5,1,538,538
8,245,excretory,List2,excret,124,5,5,1,515,515
8,245,fructify,List2,fruct,118,5,5,1,547,547
8,245,damnatory,List2,damnat,143,5,5,1,653,653
8,245,corporify,List2,corpor,115,5,5,1,638,638
8,245,dormitory,List2,dormit,109,5,5,1,614,614
8,245,revisory,List2,revis,130,5,5,1,695,695
8,245,domineer,List2,domin,112,5,5,1,536,536
8,245,sibling,List2,sib,146,5,5,1,784,784
8,245,amatory,List2,amat,106,5,5,1,505,505
8,245,gustatory,List2,gustat,125,5,5,1,866,866
8,245,capacify,List2,capac,136,5,5,1,651,651
8,245,diabolify,List2,diabol,137,5,5,1,573,573
8,245,senatory,List2,senat,131,5,5,1,909,909
8,245,mutineer,List2,mutin,113,5,5,1,663,663
8,245,offertory,List2,offert,148,5,5,1,551,551
8,245,alkalify,List2,alkal,133,5,5,1,489,489
8,245,donatory,List2,donat,123,5,5,1,521,521
8,245,chevalier,List2,cheval,103,5,5,1,570,570
8,245,prettify,List2,prett,140,5,5,1,506,506
8,245,carbineer,List2,carbin,122,5,5,1,579,579
8,245,signatory,List2,signat,132,5,5,1,580,580
8,245,monitory,List2,monit,126,5,5,1,564,564
8,245,celestify,List2,celest,114,5,5,1,1053,1053
8,245,refectory,List2,refect,129,5,6,0,606,NA
8,245,stratify,List2,strat,141,5,5,1,622,622
8,245,terrify,List2,terr,142,5,5,1,831,831
8,245,brigadier,List2,brigad,102,5,5,1,671,671
8,245,arbory,List2,arb,107,5,5,1,680,680
8,245,darling,List2,dar,145,5,5,1,816,816
8,245,sensify,List2,sens,119,5,5,1,586,586
8,245,calcify,List2,calc,134,5,5,1,765,765
8,245,purgatory,List2,purgat,127,5,5,1,688,688
8,245,horrify,List2,horr,138,5,5,1,561,561
8,245,carnify,List2,carn,150,5,5,1,530,530
8,245,dandify,List2,dand,117,5,5,1,634,634
8,245,chandelier,List2,chandel,104,5,5,1,506,506
8,245,cavalier,List2,caval,101,5,5,1,1084,1084
8,245,territory,List2,territ,111,5,5,1,677,677
8,245,veneer,List2,ven,120,5,5,1,574,574
8,245,rectory,List2,rect,128,5,5,1,640,640
8,245,daintify,List2,daint,116,5,5,1,544,544
8,245,wisdom,List2,wis,147,5,5,1,594,594
8,245,olfactory,List2,olfact,110,5,5,1,691,691
8,245,adulatory,List2,adulat,105,5,5,1,613,613
8,245,reindeer,List2,reind,121,5,5,1,590,590
8,245,curatory,List2,curat,108,5,5,1,479,479
8,246,women,List2,wom,199,5,5,1,641,641
8,246,corridor,List2,corrid,164,5,5,1,545,545
8,246,comply,List2,comp,188,5,5,1,584,584
8,246,gotten,List1,gott,155,5,5,1,730,730
8,246,accusor,List1,accus,181,5,5,1,667,667
8,246,stolen,List1,stol,158,5,5,1,571,571
8,246,author,List1,auth,184,5,5,1,981,981
8,246,happen,List1,happ,156,5,5,1,654,654
8,246,rally,List1,ral,171,5,5,1,726,726
8,246,writhen,List1,writh,160,5,5,1,614,614
8,246,cursor,List1,curs,187,5,5,1,647,647
8,246,baroness,List1,baro,177,5,5,1,736,736
8,246,skirmish,List1,skirm,163,5,5,1,768,768
8,246,dishevely,List1,disheve,167,5,5,1,714,714
8,246,angrily,List1,angri,164,5,5,1,923,923
8,246,fifteen,List1,fifte,154,5,5,1,645,645
8,246,literator,List1,literat,191,5,5,1,629,629
8,246,brazen,List1,braz,152,5,5,1,567,567
8,246,worsen,List1,wors,159,5,5,1,567,567
8,246,emperor,List1,emper,189,5,5,1,641,641
8,246,bimonthly,List1,bimonth,165,5,5,1,682,682
8,246,kitchen,List1,kitch,157,5,6,0,779,NA
8,246,recaptor,List1,recapt,193,5,5,1,757,757
8,246,deaconess,List1,deaco,178,5,5,1,935,935
8,246,broken,List1,brok,153,5,5,1,712,712
8,246,colly,List1,col,166,5,5,1,800,800
8,246,spindly,List1,spind,172,5,5,1,904,904
8,246,guinness,List1,guin,179,5,5,1,617,617
8,246,censor,List1,cens,186,5,5,1,832,832
8,246,terribly,List1,terrib,197,5,5,1,634,634
8,246,haziness,List1,hazi,180,5,5,1,747,747
8,246,variably,List1,variab,176,5,5,1,732,732
8,246,blemish,List1,blem,161,5,5,1,708,708
8,246,humbly,List1,humb,170,5,5,1,733,733
8,246,tremor,List1,trem,195,5,5,1,518,518
8,246,wiggly,List1,wigg,200,5,5,1,624,624
8,246,vector,List1,vect,196,5,5,1,833,833
8,246,barmen,List1,barm,151,5,5,1,689,689
8,246,suitably,List1,suitab,173,5,5,1,610,610
8,246,devisor,List1,devis,188,5,5,1,1059,1059
8,246,treacly,List1,treac,174,5,5,1,500,500
8,246,glibly,List1,glib,169,5,5,1,789,789
8,246,aviator,List1,aviat,185,5,5,1,774,774
8,246,paritor,List1,parit,192,5,5,1,567,567
8,246,trembly,List1,tremb,175,5,5,1,990,990
8,246,alluminor,List1,allumin,183,5,5,1,832,832
8,246,tolerably,List1,tolerab,198,5,5,1,530,530
8,246,equably,List1,equab,168,5,5,1,579,579
8,246,guarantor,List1,guarant,190,5,5,1,596,596
8,246,volubly,List1,volub,199,5,5,1,814,814
8,246,advisor,List1,advis,182,5,5,1,624,624
8,246,furbish,List1,furb,162,5,5,1,744,744
8,246,redactor,List1,redact,194,5,5,1,720,720
8,246,stamen,List2,stam,171,5,5,1,524,524
8,246,sprawly,List2,spraw,191,5,5,1,916,916
8,246,varnish,List2,varn,160,5,5,1,702,702
8,246,realtor,List2,realt,166,5,5,1,526,526
8,246,jasper,List2,jasp,181,5,5,1,783,783
8,246,snakish,List2,snak,193,5,5,1,642,642
8,246,spinster,List2,spinst,174,5,5,1,658,658
8,246,thunder,List2,thund,176,5,5,1,700,700
8,246,curator,List2,curat,195,5,5,1,476,476
8,246,mirror,List2,mirr,197,5,5,1,614,614
8,246,birth,List2,bir,186,5,5,1,409,409
8,246,hamper,List2,hamp,180,5,5,1,672,672
8,246,brambly,List2,bramb,154,5,5,1,641,641
8,246,guinness,List2,guin,152,5,5,1,593,593
8,246,grizzly,List2,grizz,155,5,5,1,562,562
8,246,semester,List2,semest,179,5,5,1,675,675
8,246,belly,List2,bel,187,5,5,1,500,500
8,246,sprightly,List2,spright,156,5,6,0,493,NA
8,246,tinder,List2,tind,200,5,5,1,543,543
8,246,cluster,List2,clust,183,5,5,1,647,647
8,246,spearmen,List2,spearm,169,5,5,1,1331,NA
8,246,monger,List2,mong,177,5,5,1,660,660
8,246,flemish,List2,flem,158,5,5,1,622,622
8,246,condor,List2,cond,194,5,5,1,680,680
8,246,aspirator,List2,aspirat,161,5,5,1,585,585
8,246,brinish,List2,brin,157,5,5,1,649,649
8,246,bachelor,List2,bachel,163,5,5,1,506,506
8,246,dander,List2,dand,182,5,5,1,700,700
8,246,aviator,List2,aviat,162,5,5,1,557,557
8,246,betroth,List2,betro,185,5,5,1,519,519
8,246,spoken,List2,spok,170,5,5,1,536,536
8,246,trouser,List2,trous,172,5,5,1,592,592
8,246,harbor,List2,harb,196,5,5,1,657,657
8,246,brackish,List2,brack,192,5,5,1,642,642
8,246,purply,List2,purp,189,5,5,1,619,619
8,246,eternish,List2,etern,151,5,5,1,635,635
8,246,creator,List2,creat,165,5,5,1,476,476
8,246,skirmish,List2,skirm,159,5,5,1,844,844
8,246,simply,List2,simp,153,5,5,1,492,492
8,246,pamper,List2,pamp,178,5,5,1,500,500
8,246,burden,List2,burd,168,5,5,1,572,572
8,246,spindly,List2,spind,190,5,5,1,485,485
8,246,lichen,List2,lich,198,5,5,1,678,678
8,246,tamper,List2,tamp,175,5,5,1,670,670
8,246,clyster,List2,clyst,184,5,5,1,446,446
8,246,broiden,List2,broid,167,5,5,1,519,519
8,246,smoulder,List2,smould,173,5,6,0,552,NA
9,1,breadth,List1,bread,1,6,6,1,475,475
9,2,hearth,List1,hear,2,6,5,0,717,NA
9,3,youth,List1,you,3,6,6,1,647,647
9,4,kindling,List2,kind,4,6,6,1,383,383
9,5,dumpling,List2,dump,5,6,6,1,598,598
9,6,random,List2,ran,6,6,6,1,407,407
9,7,dearth,List2,dear,7,6,6,1,486,486
9,8,career,List1,car,8,6,6,1,395,395
9,9,ratify,List1,rat,9,6,6,1,673,673
9,10,factory,List1,fact,10,6,5,0,744,NA
9,11,pillory,List1,pill,11,6,6,1,700,700
9,12,hickory,List2,hick,12,6,6,1,416,416
9,13,auditory,List2,audit,13,6,5,0,444,NA
9,14,testify,List2,test,14,6,6,1,691,691
9,15,seedling,List1,seed,15,6,6,1,488,488
9,16,warmth,List1,warm,16,6,6,1,605,605
9,17,fourth,List1,four,17,6,6,1,401,401
9,18,boyhood,List1,boy,18,6,5,0,853,NA
9,19,eleventh,List1,eleven,19,6,6,1,502,502
9,20,sixth,List1,six,20,6,6,1,456,456
9,21,duckling,List1,duck,21,6,6,1,501,501
9,22,stardom,List1,star,22,6,6,1,456,456
9,23,manhood,List1,man,23,6,6,1,487,487
9,24,boredom,List2,bore,24,6,5,0,694,NA
9,25,tenth,List2,ten,25,6,6,1,440,440
9,26,freedom,List2,free,26,6,6,1,496,496
9,27,kingdom,List2,king,27,6,6,1,581,581
9,28,sapling,List2,sap,28,6,6,1,525,525
9,29,earthling,List2,earth,29,6,6,1,481,481
9,30,growth,List2,grow,30,6,6,1,446,446
9,31,serfdom,List2,serf,31,6,6,1,620,620
9,32,health,List2,heal,32,6,5,0,711,NA
9,33,cashier,List1,cash,33,6,6,1,644,644
9,34,solidify,List1,solid,34,6,6,1,551,551
9,35,fortify,List1,fort,35,6,6,1,478,478
9,36,profiteer,List1,profit,36,6,6,1,712,712
9,37,directory,List1,direct,37,6,6,1,695,695
9,38,armory,List1,arm,38,6,6,1,551,551
9,39,acidify,List1,acid,39,6,6,1,550,550
9,40,frontier,List1,front,40,6,6,1,661,661
9,41,humidify,List1,humid,41,6,6,1,435,435
9,42,classify,List2,class,42,6,6,1,484,484
9,43,hotelier,List2,hotel,43,6,6,1,625,625
9,44,marketeer,List2,market,44,6,6,1,637,637
9,45,justify,List2,just,45,6,6,1,459,459
9,46,courtier,List2,court,46,6,6,1,700,700
9,47,nullify,List2,null,47,6,6,1,438,438
9,48,racketeer,List2,racket,48,6,6,1,396,396
9,49,musketeer,List2,musket,49,6,6,1,612,612
9,50,clothier,List2,cloth,50,6,6,1,491,491
9,51,witness,List1,wit,51,6,6,1,614,614
9,52,imply,List2,imp,52,6,6,1,486,486
9,53,listen,List1,list,53,6,6,1,685,685
9,54,pastor,List1,past,54,6,6,1,561,561
9,55,banish,List1,ban,55,6,6,1,482,482
9,56,heathen,List1,heath,56,6,6,1,516,516
9,57,mister,List1,mist,57,6,6,1,627,627
9,58,raptor,List1,rapt,58,6,5,0,658,NA
9,59,flower,List2,flow,59,6,6,1,611,611
9,60,traitor,List2,trait,60,6,5,0,780,NA
9,61,limber,List2,limb,61,6,6,1,452,452
9,62,hunger,List2,hung,62,6,5,0,483,NA
9,63,pollen,List2,poll,63,6,5,0,664,NA
9,64,vanish,List2,van,64,6,6,1,590,590
9,65,helpless,List1,help,65,6,6,1,527,527
9,66,chiefly,List1,chief,66,6,6,1,521,521
9,67,strongly,List1,strong,67,6,6,1,658,658
9,68,deafness,List1,deaf,68,6,5,0,687,NA
9,69,deadly,List1,dead,69,6,6,1,636,636
9,70,sickness,List1,sick,70,6,6,1,648,648
9,71,worthless,List1,worth,71,6,6,1,415,415
9,72,thankless,List1,thank,72,6,6,1,548,548
9,73,toothless,List1,tooth,73,6,6,1,663,663
9,74,weakness,List2,weak,74,6,6,1,407,407
9,75,greatly,List2,great,75,6,6,1,495,495
9,76,illness,List2,ill,76,6,6,1,688,688
9,77,calmness,List2,calm,77,6,6,1,406,406
9,78,deathlike,List2,death,78,6,6,1,433,433
9,79,waiflike,List2,waif,79,6,6,1,661,661
9,80,highly,List2,high,80,6,6,1,692,692
9,81,stainless,List2,stain,81,6,6,1,511,511
9,82,warlike,List2,war,82,6,6,1,562,562
9,83,tractor,List1,tract,83,6,5,0,691,NA
9,84,sculptor,List1,sculpt,84,6,6,1,646,646
9,85,selfish,List1,self,85,6,6,1,615,615
9,86,freshen,List1,fresh,86,6,6,1,470,470
9,87,debtor,List1,debt,87,6,6,1,533,533
9,88,prayer,List1,pray,88,6,6,1,714,714
9,89,professor,List1,profess,89,6,5,0,586,NA
9,90,soften,List1,soft,90,6,6,1,606,606
9,91,fasten,List1,fast,91,6,6,1,544,544
9,92,drawer,List2,draw,92,6,6,1,590,590
9,93,greenish,List2,green,93,6,6,1,531,531
9,94,bookish,List2,book,94,6,6,1,493,493
9,95,drunken,List2,drunk,95,6,6,1,597,597
9,96,foolish,List2,fool,96,6,6,1,515,515
9,97,freakish,List2,freak,97,6,6,1,493,493
9,98,flaxen,List2,flax,98,6,6,1,517,517
9,99,hunter,List2,hunt,99,6,6,1,547,547
9,100,sailor,List2,sail,100,6,6,1,476,476
9,101,kindling,List2,bread,1,6,6,1,406,406
9,102,dumpling,List2,hear,2,6,6,1,499,499
9,103,random,List2,you,3,6,6,1,602,602
9,104,breadth,List1,kind,4,6,6,1,711,711
9,105,hearth,List1,dump,5,6,6,1,790,790
9,106,youth,List1,ran,6,6,6,1,546,546
9,107,pillory,List1,dear,7,6,6,1,725,725
9,108,hickory,List2,car,8,6,6,1,440,440
9,109,auditory,List2,rat,9,6,6,1,544,544
9,110,testify,List2,fact,10,6,6,1,492,492
9,111,dearth,List2,pill,11,6,6,1,402,402
9,112,career,List1,hick,12,6,6,1,700,700
9,113,ratify,List1,audit,13,6,6,1,790,790
9,114,factory,List1,test,14,6,6,1,458,458
9,115,boredom,List2,seed,15,6,6,1,854,854
9,116,tenth,List2,warm,16,6,6,1,435,435
9,117,freedom,List2,four,17,6,5,0,431,NA
9,118,kingdom,List2,boy,18,6,6,1,501,501
9,119,sapling,List2,eleven,19,6,6,1,468,468
9,120,earthling,List2,six,20,6,6,1,509,509
9,121,growth,List2,duck,21,6,6,1,607,607
9,122,serfdom,List2,star,22,6,6,1,512,512
9,123,health,List2,man,23,6,6,1,538,538
9,124,seedling,List1,bore,24,6,6,1,666,666
9,125,warmth,List1,ten,25,6,6,1,531,531
9,126,fourth,List1,free,26,6,6,1,485,485
9,127,boyhood,List1,king,27,6,6,1,513,513
9,128,eleventh,List1,sap,28,6,6,1,422,422
9,129,sixth,List1,earth,29,6,6,1,587,587
9,130,duckling,List1,grow,30,6,6,1,448,448
9,131,stardom,List1,serf,31,6,6,1,757,757
9,132,manhood,List1,heal,32,6,6,1,707,707
9,133,classify,List2,cash,33,6,6,1,493,493
9,134,hotelier,List2,solid,34,6,6,1,658,658
9,135,marketeer,List2,fort,35,6,6,1,501,501
9,136,justify,List2,profit,36,6,6,1,785,785
9,137,courtier,List2,direct,37,6,6,1,706,706
9,138,nullify,List2,arm,38,6,6,1,518,518
9,139,racketeer,List2,acid,39,6,6,1,676,676
9,140,musketeer,List2,front,40,6,6,1,1024,1024
9,141,clothier,List2,humid,41,6,6,1,483,483
9,142,cashier,List1,class,42,6,6,1,556,556
9,143,solidify,List1,hotel,43,6,6,1,525,525
9,144,fortify,List1,market,44,6,6,1,574,574
9,145,profiteer,List1,just,45,6,6,1,846,846
9,146,directory,List1,court,46,6,6,1,650,650
9,147,armory,List1,null,47,6,6,1,548,548
9,148,acidify,List1,racket,48,6,6,1,835,835
9,149,frontier,List1,musket,49,6,6,1,818,818
9,150,humidify,List1,cloth,50,6,6,1,595,595
9,151,imply,List2,wit,51,6,6,1,514,514
9,152,witness,List1,imp,52,6,6,1,566,566
9,153,flower,List2,list,53,6,6,1,546,546
9,154,traitor,List2,past,54,6,6,1,591,591
9,155,limber,List2,ban,55,6,6,1,619,619
9,156,hunger,List2,heath,56,6,6,1,520,520
9,157,pollen,List2,mist,57,6,6,1,557,557
9,158,vanish,List2,rapt,58,6,5,0,568,NA
9,159,listen,List1,flow,59,6,6,1,506,506
9,160,pastor,List1,trait,60,6,5,0,463,NA
9,161,banish,List1,limb,61,6,6,1,553,553
9,162,heathen,List1,hung,62,6,5,0,521,NA
9,163,mister,List1,poll,63,6,6,1,757,757
9,164,raptor,List1,van,64,6,6,1,526,526
9,165,weakness,List2,help,65,6,6,1,455,455
9,166,greatly,List2,chief,66,6,6,1,485,485
9,167,illness,List2,strong,67,6,6,1,443,443
9,168,calmness,List2,deaf,68,6,6,1,426,426
9,169,deathlike,List2,dead,69,6,6,1,570,570
9,170,waiflike,List2,sick,70,6,6,1,594,594
9,171,highly,List2,worth,71,6,6,1,559,559
9,172,stainless,List2,thank,72,6,6,1,577,577
9,173,warlike,List2,tooth,73,6,6,1,456,456
9,174,helpless,List1,weak,74,6,6,1,574,574
9,175,chiefly,List1,great,75,6,6,1,484,484
9,176,strongly,List1,ill,76,6,6,1,493,493
9,177,deafness,List1,calm,77,6,6,1,444,444
9,178,deadly,List1,death,78,6,6,1,543,543
9,179,sickness,List1,waif,79,6,6,1,605,605
9,180,worthless,List1,high,80,6,6,1,460,460
9,181,thankless,List1,stain,81,6,6,1,488,488
9,182,toothless,List1,war,82,6,6,1,636,636
9,183,drawer,List2,tract,83,6,6,1,651,651
9,184,greenish,List2,sculpt,84,6,6,1,572,572
9,185,bookish,List2,self,85,6,6,1,485,485
9,186,drunken,List2,fresh,86,6,6,1,739,739
9,187,foolish,List2,debt,87,6,6,1,536,536
9,188,freakish,List2,pray,88,6,6,1,610,610
9,189,flaxen,List2,profess,89,6,5,0,658,NA
9,190,hunter,List2,soft,90,6,6,1,500,500
9,191,sailor,List2,fast,91,6,6,1,579,579
9,192,tractor,List1,draw,92,6,6,1,471,471
9,193,sculptor,List1,green,93,6,6,1,407,407
9,194,selfish,List1,book,94,6,6,1,462,462
9,195,freshen,List1,drunk,95,6,6,1,559,559
9,196,debtor,List1,fool,96,6,6,1,493,493
9,197,prayer,List1,freak,97,6,6,1,509,509
9,198,professor,List1,flax,98,6,6,1,517,517
9,199,soften,List1,hunt,99,6,6,1,516,516
9,200,fasten,List1,sail,100,6,6,1,496,496
9,245,conditory,List1,condit,114,5,6,0,514,NA
9,245,alkalify,List2,alkal,133,5,5,1,562,562
9,245,modify,List2,mod,139,5,6,0,746,NA
9,245,grating,List1,grat,145,5,5,1,514,514
9,245,hortatory,List1,hortat,130,5,5,1,885,885
9,245,comparing,List1,compar,112,5,5,1,655,655
9,245,terrify,List1,terr,140,5,5,1,760,760
9,245,certify,List1,cert,108,5,5,1,633,633
9,245,parading,List1,parad,150,5,5,1,593,593
9,245,dilatory,List1,dilat,118,5,5,1,651,651
9,245,crating,List1,crat,115,5,5,1,629,629
9,245,fumify,List1,fum,129,5,6,0,919,NA
9,245,comelier,List1,comel,111,5,5,1,753,753
9,245,clarify,List1,clar,109,5,5,1,592,592
9,245,hiking,List1,hik,146,5,5,1,712,712
9,245,ropier,List1,rop,138,5,5,1,969,969
9,245,merging,List1,merg,149,5,5,1,601,601
9,245,dizzier,List1,dizz,120,5,5,1,691,691
9,245,forcing,List1,forc,127,5,5,1,518,518
9,245,gouging,List1,goug,144,5,5,1,654,654
9,245,purifier,List1,purif,137,5,5,1,536,536
9,245,amusing,List1,amus,102,5,5,1,520,520
9,245,arising,List1,aris,104,5,5,1,521,521
9,245,clumsier,List1,clums,110,5,5,1,513,513
9,245,lopping,List1,lopp,148,5,5,1,473,473
9,245,monitory,List1,monit,132,5,5,1,497,497
9,245,emulsify,List1,emuls,124,5,5,1,554,554
9,245,culpatory,List1,culpat,116,5,5,1,603,603
9,245,impeding,List1,imped,147,5,6,0,1044,NA
9,245,apprising,List1,appris,103,5,5,1,516,516
9,245,flimsier,List1,flims,126,5,6,0,857,NA
9,245,nuttier,List1,nutt,134,5,5,1,897,897
9,245,felicify,List1,felic,125,5,5,1,709,709
9,245,emulatory,List1,emulat,123,5,5,1,670,670
9,245,droning,List1,dron,121,5,5,1,622,622
9,245,forging,List1,forg,128,5,5,1,687,687
9,245,blaming,List1,blam,105,5,6,0,792,NA
9,245,gliding,List1,glid,143,5,5,1,769,769
9,245,dinkier,List1,dink,119,5,5,1,881,881
9,245,nippier,List1,nipp,133,5,5,1,553,553
9,245,amplifier,List1,amplif,101,5,5,1,570,570
9,245,candify,List1,cand,106,5,5,1,578,578
9,245,territory,List1,territ,141,5,5,1,484,484
9,245,garaging,List1,garag,142,5,5,1,676,676
9,245,dandify,List1,dand,117,5,5,1,486,486
9,245,lonelier,List1,lonel,131,5,5,1,551,551
9,245,punitory,List1,punit,136,5,5,1,495,495
9,245,capturing,List1,captur,107,5,5,1,592,592
9,245,emptier,List1,empt,122,5,5,1,529,529
9,245,peskier,List1,pesk,135,5,5,1,1018,1018
9,245,stratify,List1,strat,139,5,5,1,1322,NA
9,245,competing,List1,compet,113,5,5,1,633,633
9,245,veneer,List2,ven,120,5,5,1,612,612
9,245,monitory,List2,monit,126,5,5,1,590,590
9,245,curatory,List2,curat,108,5,5,1,503,503
9,245,dormitory,List2,dormit,109,5,5,1,607,607
9,245,diabolify,List2,diabol,137,5,6,0,903,NA
9,245,donatory,List2,donat,123,5,5,1,513,513
9,245,prettify,List2,prett,140,5,5,1,657,657
9,245,stratify,List2,strat,141,5,6,0,617,NA
9,245,rectory,List2,rect,128,5,5,1,626,626
9,245,reindeer,List2,reind,121,5,5,1,548,548
9,245,olfactory,List2,olfact,110,5,5,1,572,572
9,245,piscatory,List2,piscat,144,5,5,1,477,477
9,245,cavalier,List2,caval,101,5,5,1,709,709
9,245,mutineer,List2,mutin,113,5,5,1,622,622
9,245,chandelier,List2,chandel,104,5,5,1,662,662
9,245,wisdom,List2,wis,147,5,5,1,583,583
9,245,calcify,List2,calc,134,5,5,1,495,495
9,245,damnatory,List2,damnat,143,5,5,1,825,825
9,245,brigadier,List2,brigad,102,5,5,1,721,721
9,245,arbory,List2,arb,107,5,5,1,466,466
9,245,horrify,List2,horr,138,5,5,1,588,588
9,245,celestify,List2,celest,114,5,5,1,582,582
9,245,calorify,List2,calor,135,5,5,1,782,782
9,245,fructify,List2,fruct,118,5,5,1,790,790
9,245,revisory,List2,revis,130,5,5,1,495,495
9,245,dandify,List2,dand,117,5,5,1,512,512
9,245,amatory,List2,amat,106,5,5,1,504,504
9,245,senatory,List2,senat,131,5,5,1,471,471
9,245,excretory,List2,excret,124,5,5,1,601,601
9,245,purgatory,List2,purgat,127,5,5,1,531,531
9,245,carnify,List2,carn,150,5,6,0,467,NA
9,245,refectory,List2,refect,129,5,5,1,628,628
9,245,domineer,List2,domin,112,5,5,1,525,525
9,245,gustatory,List2,gustat,125,5,5,1,573,573
9,245,offertory,List2,offert,148,5,5,1,686,686
9,245,adulatory,List2,adulat,105,5,5,1,639,639
9,245,carbineer,List2,carbin,122,5,5,1,855,855
9,245,sensify,List2,sens,119,5,5,1,520,520
9,245,daintify,List2,daint,116,5,6,0,561,NA
9,245,signatory,List2,signat,132,5,5,1,644,644
9,245,crematory,List2,cremat,149,5,5,1,534,534
9,245,capacify,List2,capac,136,5,6,0,695,NA
9,245,chevalier,List2,cheval,103,5,5,1,560,560
9,245,sibling,List2,sib,146,5,5,1,576,576
9,245,darling,List2,dar,145,5,5,1,562,562
9,245,territory,List2,territ,111,5,5,1,701,701
9,245,terrify,List2,terr,142,5,5,1,569,569
9,245,corporify,List2,corpor,115,5,5,1,601,601
9,246,brinish,List2,brin,157,5,5,1,689,689
9,246,happen,List1,happ,156,5,6,0,443,NA
9,246,gotten,List1,gott,155,5,5,1,691,691
9,246,trembly,List1,tremb,175,5,5,1,620,620
9,246,equably,List1,equab,168,5,6,0,540,NA
9,246,worsen,List1,wors,159,5,5,1,621,621
9,246,deaconess,List1,deaco,178,5,5,1,696,696
9,246,alluminor,List1,allumin,183,5,5,1,864,864
9,246,aviator,List1,aviat,185,5,5,1,665,665
9,246,spindly,List1,spind,172,5,5,1,802,802
9,246,volubly,List1,volub,199,5,5,1,602,602
9,246,cursor,List1,curs,187,5,5,1,918,918
9,246,tolerably,List1,tolerab,198,5,5,1,758,758
9,246,writhen,List1,writh,160,5,6,0,647,NA
9,246,vector,List1,vect,196,5,6,0,664,NA
9,246,rally,List1,ral,171,5,6,0,720,NA
9,246,kitchen,List1,kitch,157,5,6,0,994,NA
9,246,emperor,List1,emper,189,5,5,1,939,939
9,246,blemish,List1,blem,161,5,6,0,506,NA
9,246,humbly,List1,humb,170,5,5,1,627,627
9,246,dishevely,List1,disheve,167,5,5,1,755,755
9,246,tremor,List1,trem,195,5,5,1,612,612
9,246,fifteen,List1,fifte,154,5,5,1,670,670
9,246,broken,List1,brok,153,5,5,1,528,528
9,246,advisor,List1,advis,182,5,5,1,497,497
9,246,bimonthly,List1,bimonth,165,5,6,0,722,NA
9,246,guinness,List1,guin,179,5,5,1,610,610
9,246,wiggly,List1,wigg,200,5,5,1,907,907
9,246,devisor,List1,devis,188,5,5,1,563,563
9,246,angrily,List1,angri,164,5,5,1,588,588
9,246,treacly,List1,treac,174,5,5,1,756,756
9,246,haziness,List1,hazi,180,5,5,1,615,615
9,246,brazen,List1,braz,152,5,5,1,729,729
9,246,colly,List1,col,166,5,5,1,579,579
9,246,redactor,List1,redact,194,5,6,0,652,NA
9,246,accusor,List1,accus,181,5,5,1,588,588
9,246,stolen,List1,stol,158,5,5,1,589,589
9,246,skirmish,List1,skirm,163,5,5,1,829,829
9,246,author,List1,auth,184,5,5,1,710,710
9,246,terribly,List1,terrib,197,5,5,1,503,503
9,246,variably,List1,variab,176,5,5,1,592,592
9,246,barmen,List1,barm,151,5,5,1,1153,1153
9,246,glibly,List1,glib,169,5,5,1,778,778
9,246,recaptor,List1,recapt,193,5,5,1,731,731
9,246,literator,List1,literat,191,5,5,1,531,531
9,246,censor,List1,cens,186,5,5,1,508,508
9,246,suitably,List1,suitab,173,5,5,1,596,596
9,246,furbish,List1,furb,162,5,5,1,541,541
9,246,baroness,List1,baro,177,5,5,1,454,454
9,246,guarantor,List1,guarant,190,5,5,1,640,640
9,246,paritor,List1,parit,192,5,5,1,576,576
9,246,monger,List2,mong,177,5,5,1,539,539
9,246,curator,List2,curat,195,5,5,1,580,580
9,246,cluster,List2,clust,183,5,5,1,596,596
9,246,belly,List2,bel,187,5,5,1,557,557
9,246,skirmish,List2,skirm,159,5,5,1,984,984
9,246,guinness,List2,guin,152,5,6,0,377,NA
9,246,brackish,List2,brack,192,5,5,1,650,650
9,246,women,List2,wom,199,5,5,1,634,634
9,246,tamper,List2,tamp,175,5,6,0,714,NA
9,246,clyster,List2,clyst,184,5,5,1,715,715
9,246,semester,List2,semest,179,5,5,1,547,547
9,246,corridor,List2,corrid,164,5,5,1,516,516
9,246,condor,List2,cond,194,5,5,1,718,718
9,246,sprightly,List2,spright,156,5,6,0,711,NA
9,246,hamper,List2,hamp,180,5,6,0,888,NA
9,246,spearmen,List2,spearm,169,5,5,1,753,753
9,246,birth,List2,bir,186,5,5,1,450,450
9,246,realtor,List2,realt,166,5,5,1,546,546
9,246,snakish,List2,snak,193,5,5,1,499,499
9,246,sprawly,List2,spraw,191,5,5,1,764,764
9,246,spindly,List2,spind,190,5,5,1,589,589
9,246,betroth,List2,betro,185,5,5,1,519,519
9,246,tinder,List2,tind,200,5,5,1,511,511
9,246,comply,List2,comp,188,5,5,1,768,768
9,246,burden,List2,burd,168,5,5,1,785,785
9,246,brambly,List2,bramb,154,5,5,1,834,834
9,246,varnish,List2,varn,160,5,5,1,637,637
9,246,spinster,List2,spinst,174,5,5,1,535,535
9,246,purply,List2,purp,189,5,5,1,624,624
9,246,trouser,List2,trous,172,5,5,1,648,648
9,246,flemish,List2,flem,158,5,5,1,675,675
9,246,creator,List2,creat,165,5,5,1,709,709
9,246,spoken,List2,spok,170,5,5,1,709,709
9,246,grizzly,List2,grizz,155,5,5,1,605,605
9,246,aviator,List2,aviat,162,5,5,1,686,686
9,246,lichen,List2,lich,198,5,6,0,791,NA
9,246,thunder,List2,thund,176,5,5,1,680,680
9,246,broiden,List2,broid,167,5,5,1,624,624
9,246,bachelor,List2,bachel,163,5,5,1,585,585
9,246,stamen,List2,stam,171,5,5,1,650,650
9,246,dander,List2,dand,182,5,5,1,578,578
9,246,eternish,List2,etern,151,5,5,1,643,643
9,246,jasper,List2,jasp,181,5,5,1,572,572
9,246,smoulder,List2,smould,173,5,6,0,533,NA
9,246,mirror,List2,mirr,197,5,5,1,662,662
9,246,harbor,List2,harb,196,5,5,1,678,678
9,246,pamper,List2,pamp,178,5,5,1,696,696
9,246,simply,List2,simp,153,5,5,1,601,601
9,246,aspirator,List2,aspirat,161,5,5,1,569,569
10,1,breadth,List2,bread,1,6,6,1,560,560
10,2,hearth,List2,hear,2,6,6,1,525,525
10,3,youth,List2,you,3,6,6,1,541,541
10,4,kindling,List1,kind,4,6,6,1,874,874
10,5,dumpling,List1,dump,5,6,6,1,525,525
10,6,random,List1,ran,6,6,5,0,715,NA
10,7,dearth,List1,dear,7,6,6,1,621,621
10,8,career,List2,car,8,6,6,1,638,638
10,9,ratify,List2,rat,9,6,5,0,540,NA
10,10,factory,List2,fact,10,6,6,1,680,680
10,11,pillory,List2,pill,11,6,6,1,659,659
10,12,hickory,List1,hick,12,6,6,1,489,489
10,13,auditory,List1,audit,13,6,5,0,465,NA
10,14,testify,List1,test,14,6,6,1,750,750
10,15,seedling,List2,seed,15,6,6,1,367,367
10,16,warmth,List2,warm,16,6,6,1,507,507
10,17,fourth,List2,four,17,6,6,1,483,483
10,18,boyhood,List2,boy,18,6,6,1,472,472
10,19,eleventh,List2,eleven,19,6,6,1,550,550
10,20,sixth,List2,six,20,6,6,1,509,509
10,21,duckling,List2,duck,21,6,6,1,446,446
10,22,stardom,List2,star,22,6,6,1,568,568
10,23,manhood,List2,man,23,6,6,1,557,557
10,24,boredom,List1,bore,24,6,6,1,1132,1132
10,25,tenth,List1,ten,25,6,6,1,600,600
10,26,freedom,List1,free,26,6,6,1,568,568
10,27,kingdom,List1,king,27,6,6,1,655,655
10,28,sapling,List1,sap,28,6,6,1,850,850
10,29,earthling,List1,earth,29,6,6,1,433,433
10,30,growth,List1,grow,30,6,6,1,469,469
10,31,serfdom,List1,serf,31,6,5,0,625,NA
10,32,health,List1,heal,32,6,6,1,551,551
10,33,cashier,List2,cash,33,6,6,1,419,419
10,34,solidify,List2,solid,34,6,6,1,529,529
10,35,fortify,List2,fort,35,6,6,1,495,495
10,36,profiteer,List2,profit,36,6,5,0,665,NA
10,37,directory,List2,direct,37,6,6,1,562,562
10,38,armory,List2,arm,38,6,6,1,528,528
10,39,acidify,List2,acid,39,6,6,1,522,522
10,40,frontier,List2,front,40,6,6,1,652,652
10,41,humidify,List2,humid,41,6,6,1,524,524
10,42,classify,List1,class,42,6,6,1,529,529
10,43,hotelier,List1,hotel,43,6,6,1,641,641
10,44,marketeer,List1,market,44,6,6,1,505,505
10,45,justify,List1,just,45,6,6,1,470,470
10,46,courtier,List1,court,46,6,6,1,644,644
10,47,nullify,List1,null,47,6,5,0,604,NA
10,48,racketeer,List1,racket,48,6,6,1,548,548
10,49,musketeer,List1,musket,49,6,6,1,642,642
10,50,clothier,List1,cloth,50,6,6,1,811,811
10,51,witness,List2,wit,51,6,6,1,804,804
10,52,imply,List1,imp,52,6,6,1,763,763
10,53,listen,List2,list,53,6,5,0,607,NA
10,54,pastor,List2,past,54,6,5,0,541,NA
10,55,banish,List2,ban,55,6,6,1,469,469
10,56,heathen,List2,heath,56,6,6,1,518,518
10,57,mister,List2,mist,57,6,6,1,674,674
10,58,raptor,List2,rapt,58,6,5,0,490,NA
10,59,flower,List1,flow,59,6,6,1,482,482
10,60,traitor,List1,trait,60,6,5,0,630,NA
10,61,limber,List1,limb,61,6,6,1,824,824
10,62,hunger,List1,hung,62,6,6,1,725,725
10,63,pollen,List1,poll,63,6,6,1,957,957
10,64,vanish,List1,van,64,6,6,1,563,563
10,65,helpless,List2,help,65,6,6,1,489,489
10,66,chiefly,List2,chief,66,6,6,1,422,422
10,67,strongly,List2,strong,67,6,6,1,552,552
10,68,deafness,List2,deaf,68,6,6,1,410,410
10,69,deadly,List2,dead,69,6,6,1,522,522
10,70,sickness,List2,sick,70,6,6,1,496,496
10,71,worthless,List2,worth,71,6,6,1,476,476
10,72,thankless,List2,thank,72,6,6,1,567,567
10,73,toothless,List2,tooth,73,6,6,1,603,603
10,74,weakness,List1,weak,74,6,6,1,562,562
10,75,greatly,List1,great,75,6,6,1,503,503
10,76,illness,List1,ill,76,6,6,1,642,642
10,77,calmness,List1,calm,77,6,6,1,579,579
10,78,deathlike,List1,death,78,6,6,1,514,514
10,79,waiflike,List1,waif,79,6,6,1,1086,1086
10,80,highly,List1,high,80,6,6,1,564,564
10,81,stainless,List1,stain,81,6,6,1,497,497
10,82,warlike,List1,war,82,6,6,1,767,767
10,83,tractor,List2,tract,83,6,5,0,897,NA
10,84,sculptor,List2,sculpt,84,6,5,0,561,NA
10,85,selfish,List2,self,85,6,6,1,446,446
10,86,freshen,List2,fresh,86,6,6,1,531,531
10,87,debtor,List2,debt,87,6,6,1,753,753
10,88,prayer,List2,pray,88,6,6,1,553,553
10,89,professor,List2,profess,89,6,6,1,780,780
10,90,soften,List2,soft,90,6,6,1,598,598
10,91,fasten,List2,fast,91,6,6,1,532,532
10,92,drawer,List1,draw,92,6,6,1,510,510
10,93,greenish,List1,green,93,6,6,1,568,568
10,94,bookish,List1,book,94,6,6,1,446,446
10,95,drunken,List1,drunk,95,6,6,1,632,632
10,96,foolish,List1,fool,96,6,6,1,537,537
10,97,freakish,List1,freak,97,6,6,1,514,514
10,98,flaxen,List1,flax,98,6,5,0,495,NA
10,99,hunter,List1,hunt,99,6,6,1,509,509
10,100,sailor,List1,sail,100,6,6,1,629,629
10,101,kindling,List1,bread,1,6,6,1,565,565
10,102,dumpling,List1,hear,2,6,6,1,489,489
10,103,random,List1,you,3,6,6,1,784,784
10,104,breadth,List2,kind,4,6,6,1,567,567
10,105,hearth,List2,dump,5,6,6,1,509,509
10,106,youth,List2,ran,6,6,6,1,637,637
10,107,pillory,List2,dear,7,6,6,1,483,483
10,108,hickory,List1,car,8,6,6,1,502,502
10,109,auditory,List1,rat,9,6,6,1,507,507
10,110,testify,List1,fact,10,6,6,1,576,576
10,111,dearth,List1,pill,11,6,6,1,643,643
10,112,career,List2,hick,12,6,6,1,587,587
10,113,ratify,List2,audit,13,6,5,0,571,NA
10,114,factory,List2,test,14,6,6,1,650,650
10,115,boredom,List1,seed,15,6,6,1,634,634
10,116,tenth,List1,warm,16,6,6,1,535,535
10,117,freedom,List1,four,17,6,6,1,701,701
10,118,kingdom,List1,boy,18,6,6,1,579,579
10,119,sapling,List1,eleven,19,6,6,1,476,476
10,120,earthling,List1,six,20,6,6,1,911,911
10,121,growth,List1,duck,21,6,5,0,520,NA
10,122,serfdom,List1,star,22,6,6,1,628,628
10,123,health,List1,man,23,6,6,1,696,696
10,124,seedling,List2,bore,24,6,6,1,543,543
10,125,warmth,List2,ten,25,6,6,1,559,559
10,126,fourth,List2,free,26,6,6,1,490,490
10,127,boyhood,List2,king,27,6,6,1,651,651
10,128,eleventh,List2,sap,28,6,6,1,610,610
10,129,sixth,List2,earth,29,6,6,1,454,454
10,130,duckling,List2,grow,30,6,,0,,NA
10,131,stardom,List2,serf,31,6,6,1,1005,1005
10,132,manhood,List2,heal,32,6,6,1,559,559
10,133,classify,List1,cash,33,6,6,1,520,520
10,134,hotelier,List1,solid,34,6,6,1,602,602
10,135,marketeer,List1,fort,35,6,6,1,582,582
10,136,justify,List1,profit,36,6,6,1,736,736
10,137,courtier,List1,direct,37,6,6,1,611,611
10,138,nullify,List1,arm,38,6,6,1,566,566
10,139,racketeer,List1,acid,39,6,6,1,684,684
10,140,musketeer,List1,front,40,6,6,1,665,665
10,141,clothier,List1,humid,41,6,6,1,591,591
10,142,cashier,List2,class,42,6,6,1,619,619
10,143,solidify,List2,hotel,43,6,6,1,540,540
10,144,fortify,List2,market,44,6,6,1,625,625
10,145,profiteer,List2,just,45,6,6,1,778,778
10,146,directory,List2,court,46,6,6,1,718,718
10,147,armory,List2,null,47,6,6,1,847,847
10,148,acidify,List2,racket,48,6,6,1,618,618
10,149,frontier,List2,musket,49,6,6,1,909,909
10,150,humidify,List2,cloth,50,6,6,1,484,484
10,151,imply,List1,wit,51,6,6,1,523,523
10,152,witness,List2,imp,52,6,6,1,747,747
10,153,flower,List1,list,53,6,5,0,860,NA
10,154,traitor,List1,past,54,6,6,1,606,606
10,155,limber,List1,ban,55,6,6,1,577,577
10,156,hunger,List1,heath,56,6,6,1,927,927
10,157,pollen,List1,mist,57,6,6,1,791,791
10,158,vanish,List1,rapt,58,6,6,1,674,674
10,159,listen,List2,flow,59,6,6,1,537,537
10,160,pastor,List2,trait,60,6,6,1,839,839
10,161,banish,List2,limb,61,6,6,1,714,714
10,162,heathen,List2,hung,62,6,6,1,768,768
10,163,mister,List2,poll,63,6,6,1,895,895
10,164,raptor,List2,van,64,6,6,1,590,590
10,165,weakness,List1,help,65,6,6,1,795,795
10,166,greatly,List1,chief,66,6,6,1,535,535
10,167,illness,List1,strong,67,6,6,1,628,628
10,168,calmness,List1,deaf,68,6,6,1,525,525
10,169,deathlike,List1,dead,69,6,6,1,552,552
10,170,waiflike,List1,sick,70,6,6,1,1625,NA
10,171,highly,List1,worth,71,6,6,1,632,632
10,172,stainless,List1,thank,72,6,6,1,509,509
10,173,warlike,List1,tooth,73,6,6,1,578,578
10,174,helpless,List2,weak,74,6,6,1,529,529
10,175,chiefly,List2,great,75,6,6,1,475,475
10,176,strongly,List2,ill,76,6,6,1,592,592
10,177,deafness,List2,calm,77,6,6,1,867,867
10,178,deadly,List2,death,78,6,6,1,504,504
10,179,sickness,List2,waif,79,6,5,0,592,NA
10,180,worthless,List2,high,80,6,6,1,603,603
10,181,thankless,List2,stain,81,6,6,1,591,591
10,182,toothless,List2,war,82,6,6,1,505,505
10,183,drawer,List1,tract,83,6,5,0,990,NA
10,184,greenish,List1,sculpt,84,6,6,1,869,869
10,185,bookish,List1,self,85,6,6,1,706,706
10,186,drunken,List1,fresh,86,6,6,1,587,587
10,187,foolish,List1,debt,87,6,6,1,555,555
10,188,freakish,List1,pray,88,6,6,1,548,548
10,189,flaxen,List1,profess,89,6,5,0,735,NA
10,190,hunter,List1,soft,90,6,6,1,550,550
10,191,sailor,List1,fast,91,6,6,1,582,582
10,192,tractor,List2,draw,92,6,6,1,553,553
10,193,sculptor,List2,green,93,6,6,1,586,586
10,194,selfish,List2,book,94,6,6,1,524,524
10,195,freshen,List2,drunk,95,6,6,1,658,658
10,196,debtor,List2,fool,96,6,6,1,565,565
10,197,prayer,List2,freak,97,6,6,1,558,558
10,198,professor,List2,flax,98,6,6,1,987,987
10,199,soften,List2,hunt,99,6,6,1,465,465
10,200,fasten,List2,sail,100,6,6,1,600,600
10,245,corporify,List1,corpor,115,5,5,1,577,577
10,245,veneer,List1,ven,120,5,6,0,539,NA
10,245,chevalier,List1,cheval,103,5,6,0,471,NA
10,245,signatory,List1,signat,132,5,5,1,492,492
10,245,sensify,List1,sens,119,5,5,1,565,565
10,245,mutineer,List1,mutin,113,5,5,1,506,506
10,245,daintify,List1,daint,116,5,6,0,572,NA
10,245,adulatory,List1,adulat,105,5,5,1,638,638
10,245,alkalify,List1,alkal,133,5,5,1,631,631
10,245,modify,List1,mod,139,5,6,0,627,NA
10,245,terrify,List1,terr,142,5,5,1,588,588
10,245,crematory,List1,cremat,149,5,5,1,582,582
10,245,offertory,List1,offert,148,5,5,1,640,640
10,245,horrify,List1,horr,138,5,5,1,644,644
10,245,refectory,List1,refect,129,5,6,0,761,NA
10,245,diabolify,List1,diabol,137,5,5,1,733,733
10,245,damnatory,List1,damnat,143,5,5,1,753,753
10,245,senatory,List1,senat,131,5,5,1,565,565
10,245,prettify,List1,prett,140,5,5,1,743,743
10,245,excretory,List1,excret,124,5,5,1,590,590
10,245,calorify,List1,calor,135,5,5,1,555,555
10,245,arbory,List1,arb,107,5,5,1,615,615
10,245,piscatory,List1,piscat,144,5,5,1,777,777
10,245,sibling,List1,sib,146,5,5,1,845,845
10,245,domineer,List1,domin,112,5,5,1,601,601
10,245,wisdom,List1,wis,147,5,5,1,605,605
10,245,dormitory,List1,dormit,109,5,5,1,561,561
10,245,celestify,List1,celest,114,5,5,1,832,832
10,245,purgatory,List1,purgat,127,5,5,1,677,677
10,245,stratify,List1,strat,141,5,5,1,906,906
10,245,olfactory,List1,olfact,110,5,6,0,954,NA
10,245,gustatory,List1,gustat,125,5,5,1,614,614
10,245,darling,List1,dar,145,5,5,1,777,777
10,245,cavalier,List1,caval,101,5,5,1,1010,1010
10,245,carbineer,List1,carbin,122,5,5,1,799,799
10,245,fructify,List1,fruct,118,5,5,1,744,744
10,245,brigadier,List1,brigad,102,5,5,1,660,660
10,245,amatory,List1,amat,106,5,5,1,637,637
10,245,calcify,List1,calc,134,5,5,1,621,621
10,245,monitory,List1,monit,126,5,5,1,563,563
10,245,capacify,List1,capac,136,5,5,1,597,597
10,245,dandify,List1,dand,117,5,5,1,622,622
10,245,territory,List1,territ,111,5,5,1,733,733
10,245,curatory,List1,curat,108,5,5,1,615,615
10,245,revisory,List1,revis,130,5,5,1,971,971
10,245,reindeer,List1,reind,121,5,5,1,752,752
10,245,carnify,List1,carn,150,5,6,0,530,NA
10,245,rectory,List1,rect,128,5,5,1,692,692
10,245,donatory,List1,donat,123,5,5,1,523,523
10,245,chandelier,List1,chandel,104,5,6,0,833,NA
10,245,capturing,List2,captur,107,5,5,1,577,577
10,245,dandify,List2,dand,117,5,5,1,553,553
10,245,lopping,List2,lopp,148,5,5,1,548,548
10,245,comparing,List2,compar,112,5,5,1,548,548
10,245,hortatory,List2,hortat,130,5,5,1,549,549
10,245,merging,List2,merg,149,5,5,1,941,941
10,245,territory,List2,territ,141,5,5,1,541,541
10,245,dinkier,List2,dink,119,5,5,1,558,558
10,245,certify,List2,cert,108,5,5,1,495,495
10,245,nippier,List2,nipp,133,5,5,1,559,559
10,245,garaging,List2,garag,142,5,5,1,568,568
10,245,blaming,List2,blam,105,5,5,1,608,608
10,245,apprising,List2,appris,103,5,5,1,521,521
10,245,arising,List2,aris,104,5,5,1,618,618
10,245,conditory,List2,condit,114,5,5,1,682,682
10,245,amusing,List2,amus,102,5,5,1,700,700
10,245,clarify,List2,clar,109,5,5,1,581,581
10,245,parading,List2,parad,150,5,5,1,558,558
10,245,felicify,List2,felic,125,5,5,1,698,698
10,245,flimsier,List2,flims,126,5,5,1,866,866
10,245,emulatory,List2,emulat,123,5,5,1,762,762
10,245,competing,List2,compet,113,5,5,1,597,597
10,245,ropier,List2,rop,138,5,5,1,637,637
10,245,impeding,List2,imped,147,5,5,1,574,574
10,245,comelier,List2,comel,111,5,5,1,590,590
10,245,forging,List2,forg,128,5,5,1,576,576
10,245,gliding,List2,glid,143,5,5,1,696,696
10,245,emptier,List2,empt,122,5,5,1,489,489
10,245,terrify,List2,terr,140,5,5,1,587,587
10,245,crating,List2,crat,115,5,5,1,692,692
10,245,clumsier,List2,clums,110,5,5,1,717,717
10,245,droning,List2,dron,121,5,5,1,573,573
10,245,dilatory,List2,dilat,118,5,5,1,631,631
10,245,amplifier,List2,amplif,101,5,5,1,663,663
10,245,peskier,List2,pesk,135,5,6,0,545,NA
10,245,candify,List2,cand,106,5,5,1,689,689
10,245,dizzier,List2,dizz,120,5,5,1,642,642
10,245,nuttier,List2,nutt,134,5,6,0,644,NA
10,245,lonelier,List2,lonel,131,5,5,1,596,596
10,245,fumify,List2,fum,129,5,5,1,732,732
10,245,culpatory,List2,culpat,116,5,5,1,780,780
10,245,monitory,List2,monit,132,5,5,1,606,606
10,245,gouging,List2,goug,144,5,5,1,583,583
10,245,emulsify,List2,emuls,124,5,5,1,512,512
10,245,stratify,List2,strat,139,5,5,1,600,600
10,245,punitory,List2,punit,136,5,5,1,537,537
10,245,purifier,List2,purif,137,5,5,1,627,627
10,245,hiking,List2,hik,146,5,5,1,604,604
10,245,grating,List2,grat,145,5,5,1,638,638
10,245,forcing,List2,forc,127,5,5,1,623,623
10,246,burden,List1,burd,168,5,5,1,810,810
10,246,condor,List1,cond,194,5,5,1,412,412
10,246,tamper,List1,tamp,175,5,5,1,665,665
10,246,simply,List1,simp,153,5,5,1,435,435
10,246,flemish,List1,flem,158,5,5,1,803,803
10,246,birth,List1,bir,186,5,5,1,688,688
10,246,semester,List1,semest,179,5,5,1,565,565
10,246,brambly,List1,bramb,154,5,5,1,567,567
10,246,aviator,List1,aviat,162,5,6,0,791,NA
10,246,spoken,List1,spok,170,5,5,1,556,556
10,246,eternish,List1,etern,151,5,5,1,657,657
10,246,stamen,List1,stam,171,5,5,1,702,702
10,246,curator,List1,curat,195,5,5,1,487,487
10,246,cluster,List1,clust,183,5,5,1,650,650
10,246,skirmish,List1,skirm,159,5,6,0,662,NA
10,246,monger,List1,mong,177,5,5,1,581,581
10,246,sprightly,List1,spright,156,5,5,1,890,890
10,246,corridor,List1,corrid,164,5,5,1,551,551
10,246,belly,List1,bel,187,5,5,1,503,503
10,246,trouser,List1,trous,172,5,5,1,568,568
10,246,brackish,List1,brack,192,5,5,1,642,642
10,246,women,List1,wom,199,5,5,1,616,616
10,246,varnish,List1,varn,160,5,6,0,1117,NA
10,246,smoulder,List1,smould,173,5,5,1,722,722
10,246,hamper,List1,hamp,180,5,5,1,755,755
10,246,betroth,List1,betro,185,5,5,1,828,828
10,246,grizzly,List1,grizz,155,5,5,1,811,811
10,246,mirror,List1,mirr,197,5,5,1,596,596
10,246,spindly,List1,spind,190,5,5,1,761,761
10,246,jasper,List1,jasp,181,5,5,1,767,767
10,246,broiden,List1,broid,167,5,5,1,796,796
10,246,comply,List1,comp,188,5,6,0,742,NA
10,246,brinish,List1,brin,157,5,5,1,603,603
10,246,dander,List1,dand,182,5,5,1,787,787
10,246,purply,List1,purp,189,5,5,1,1103,1103
10,246,snakish,List1,snak,193,5,5,1,833,833
10,246,harbor,List1,harb,196,5,5,1,629,629
10,246,spearmen,List1,spearm,169,5,5,1,1011,1011
10,246,sprawly,List1,spraw,191,5,5,1,1027,1027
10,246,guinness,List1,guin,152,5,5,1,905,905
10,246,tinder,List1,tind,200,5,5,1,808,808
10,246,realtor,List1,realt,166,5,5,1,785,785
10,246,creator,List1,creat,165,5,5,1,1136,1136
10,246,aspirator,List1,aspirat,161,5,5,1,624,624
10,246,lichen,List1,lich,198,5,5,1,606,606
10,246,bachelor,List1,bachel,163,5,5,1,510,510
10,246,clyster,List1,clyst,184,5,5,1,661,661
10,246,spinster,List1,spinst,174,5,5,1,678,678
10,246,pamper,List1,pamp,178,5,5,1,699,699
10,246,thunder,List1,thund,176,5,5,1,592,592
10,246,tolerably,List2,tolerab,198,5,5,1,576,576
10,246,dishevely,List2,disheve,167,5,5,1,648,648
10,246,author,List2,auth,184,5,5,1,616,616
10,246,volubly,List2,volub,199,5,5,1,547,547
10,246,baroness,List2,baro,177,5,5,1,549,549
10,246,kitchen,List2,kitch,157,5,5,1,646,646
10,246,aviator,List2,aviat,185,5,5,1,678,678
10,246,humbly,List2,humb,170,5,5,1,663,663
10,246,brazen,List2,braz,152,5,5,1,576,576
10,246,furbish,List2,furb,162,5,5,1,481,481
10,246,redactor,List2,redact,194,5,5,1,609,609
10,246,guinness,List2,guin,179,5,5,1,660,660
10,246,accusor,List2,accus,181,5,5,1,597,597
10,246,recaptor,List2,recapt,193,5,5,1,685,685
10,246,bimonthly,List2,bimonth,165,5,5,1,661,661
10,246,devisor,List2,devis,188,5,5,1,493,493
10,246,worsen,List2,wors,159,5,5,1,609,609
10,246,fifteen,List2,fifte,154,5,5,1,627,627
10,246,spindly,List2,spind,172,5,5,1,796,796
10,246,stolen,List2,stol,158,5,5,1,756,756
10,246,blemish,List2,blem,161,5,5,1,639,639
10,246,colly,List2,col,166,5,5,1,550,550
10,246,emperor,List2,emper,189,5,5,1,575,575
10,246,rally,List2,ral,171,5,5,1,505,505
10,246,paritor,List2,parit,192,5,5,1,569,569
10,246,gotten,List2,gott,155,5,5,1,579,579
10,246,terribly,List2,terrib,197,5,5,1,588,588
10,246,happen,List2,happ,156,5,5,1,668,668
10,246,treacly,List2,treac,174,5,5,1,494,494
10,246,literator,List2,literat,191,5,5,1,679,679
10,246,vector,List2,vect,196,5,5,1,807,807
10,246,equably,List2,equab,168,5,5,1,584,584
10,246,suitably,List2,suitab,173,5,5,1,602,602
10,246,haziness,List2,hazi,180,5,5,1,578,578
10,246,skirmish,List2,skirm,163,5,5,1,931,931
10,246,angrily,List2,angri,164,5,5,1,612,612
10,246,advisor,List2,advis,182,5,5,1,525,525
10,246,broken,List2,brok,153,5,5,1,621,621
10,246,censor,List2,cens,186,5,5,1,558,558
10,246,glibly,List2,glib,169,5,5,1,543,543
10,246,alluminor,List2,allumin,183,5,5,1,655,655
10,246,writhen,List2,writh,160,5,5,1,872,872
10,246,variably,List2,variab,176,5,5,1,536,536
10,246,barmen,List2,barm,151,5,5,1,432,432
10,246,deaconess,List2,deaco,178,5,5,1,578,578
10,246,trembly,List2,tremb,175,5,5,1,739,739
10,246,guarantor,List2,guarant,190,5,5,1,572,572
10,246,tremor,List2,trem,195,5,5,1,492,492
10,246,cursor,List2,curs,187,5,5,1,493,493
10,246,wiggly,List2,wigg,200,5,5,1,599,599
11,1,breadth,List2,bread,1,6,6,1,448,448
11,2,hearth,List2,hear,2,6,6,1,610,610
11,3,youth,List2,you,3,6,6,1,438,438
11,4,kindling,List1,kind,4,6,6,1,730,730
11,5,dumpling,List1,dump,5,6,6,1,466,466
11,6,random,List1,ran,6,6,6,1,531,531
11,7,dearth,List1,dear,7,6,6,1,644,644
11,8,career,List2,car,8,6,6,1,540,540
11,9,ratify,List2,rat,9,6,6,1,464,464
11,10,factory,List2,fact,10,6,6,1,512,512
11,11,pillory,List2,pill,11,6,6,1,696,696
11,12,hickory,List1,hick,12,6,6,1,674,674
11,13,auditory,List1,audit,13,6,6,1,820,820
11,14,testify,List1,test,14,6,6,1,542,542
11,15,seedling,List2,seed,15,6,6,1,411,411
11,16,warmth,List2,warm,16,6,6,1,473,473
11,17,fourth,List2,four,17,6,6,1,523,523
11,18,boyhood,List2,boy,18,6,6,1,516,516
11,19,eleventh,List2,eleven,19,6,6,1,460,460
11,20,sixth,List2,six,20,6,6,1,586,586
11,21,duckling,List2,duck,21,6,6,1,460,460
11,22,stardom,List2,star,22,6,6,1,544,544
11,23,manhood,List2,man,23,6,6,1,498,498
11,24,boredom,List1,bore,24,6,6,1,538,538
11,25,tenth,List1,ten,25,6,6,1,684,684
11,26,freedom,List1,free,26,6,6,1,488,488
11,27,kingdom,List1,king,27,6,6,1,486,486
11,28,sapling,List1,sap,28,6,6,1,518,518
11,29,earthling,List1,earth,29,6,6,1,396,396
11,30,growth,List1,grow,30,6,6,1,488,488
11,31,serfdom,List1,serf,31,6,6,1,650,650
11,32,health,List1,heal,32,6,6,1,654,654
11,33,cashier,List2,cash,33,6,6,1,478,478
11,34,solidify,List2,solid,34,6,6,1,576,576
11,35,fortify,List2,fort,35,6,6,1,535,535
11,36,profiteer,List2,profit,36,6,6,1,517,517
11,37,directory,List2,direct,37,6,6,1,917,917
11,38,armory,List2,arm,38,6,6,1,502,502
11,39,acidify,List2,acid,39,6,6,1,560,560
11,40,frontier,List2,front,40,6,6,1,451,451
11,41,humidify,List2,humid,41,6,6,1,472,472
11,42,classify,List1,class,42,6,6,1,485,485
11,43,hotelier,List1,hotel,43,6,6,1,577,577
11,44,marketeer,List1,market,44,6,6,1,512,512
11,45,justify,List1,just,45,6,6,1,439,439
11,46,courtier,List1,court,46,6,6,1,539,539
11,47,nullify,List1,null,47,6,6,1,590,590
11,48,racketeer,List1,racket,48,6,6,1,546,546
11,49,musketeer,List1,musket,49,6,6,1,512,512
11,50,clothier,List1,cloth,50,6,6,1,450,450
11,51,witness,List2,wit,51,6,6,1,531,531
11,52,imply,List1,imp,52,6,6,1,902,902
11,53,listen,List2,list,53,6,6,1,455,455
11,54,pastor,List2,past,54,6,6,1,437,437
11,55,banish,List2,ban,55,6,6,1,583,583
11,56,heathen,List2,heath,56,6,6,1,954,954
11,57,mister,List2,mist,57,6,6,1,548,548
11,58,raptor,List2,rapt,58,6,6,1,950,950
11,59,flower,List1,flow,59,6,6,1,539,539
11,60,traitor,List1,trait,60,6,5,0,991,NA
11,61,limber,List1,limb,61,6,6,1,569,569
11,62,hunger,List1,hung,62,6,6,1,944,944
11,63,pollen,List1,poll,63,6,6,1,580,580
11,64,vanish,List1,van,64,6,6,1,423,423
11,65,helpless,List2,help,65,6,6,1,531,531
11,66,chiefly,List2,chief,66,6,6,1,622,622
11,67,strongly,List2,strong,67,6,6,1,574,574
11,68,deafness,List2,deaf,68,6,6,1,529,529
11,69,deadly,List2,dead,69,6,6,1,506,506
11,70,sickness,List2,sick,70,6,6,1,567,567
11,71,worthless,List2,worth,71,6,6,1,716,716
11,72,thankless,List2,thank,72,6,6,1,475,475
11,73,toothless,List2,tooth,73,6,6,1,570,570
11,74,weakness,List1,weak,74,6,6,1,492,492
11,75,greatly,List1,great,75,6,6,1,616,616
11,76,illness,List1,ill,76,6,6,1,714,714
11,77,calmness,List1,calm,77,6,6,1,509,509
11,78,deathlike,List1,death,78,6,6,1,543,543
11,79,waiflike,List1,waif,79,6,5,0,641,NA
11,80,highly,List1,high,80,6,6,1,445,445
11,81,stainless,List1,stain,81,6,6,1,626,626
11,82,warlike,List1,war,82,6,6,1,437,437
11,83,tractor,List2,tract,83,6,6,1,581,581
11,84,sculptor,List2,sculpt,84,6,6,1,669,669
11,85,selfish,List2,self,85,6,6,1,444,444
11,86,freshen,List2,fresh,86,6,6,1,611,611
11,87,debtor,List2,debt,87,6,6,1,467,467
11,88,prayer,List2,pray,88,6,6,1,537,537
11,89,professor,List2,profess,89,6,6,1,701,701
11,90,soften,List2,soft,90,6,6,1,567,567
11,91,fasten,List2,fast,91,6,6,1,643,643
11,92,drawer,List1,draw,92,6,6,1,635,635
11,93,greenish,List1,green,93,6,6,1,649,649
11,94,bookish,List1,book,94,6,6,1,585,585
11,95,drunken,List1,drunk,95,6,6,1,508,508
11,96,foolish,List1,fool,96,6,6,1,520,520
11,97,freakish,List1,freak,97,6,6,1,507,507
11,98,flaxen,List1,flax,98,6,6,1,524,524
11,99,hunter,List1,hunt,99,6,6,1,522,522
11,100,sailor,List1,sail,100,6,6,1,556,556
11,101,kindling,List1,bread,1,6,6,1,527,527
11,102,dumpling,List1,hear,2,6,6,1,496,496
11,103,random,List1,you,3,6,6,1,433,433
11,104,breadth,List2,kind,4,6,6,1,471,471
11,105,hearth,List2,dump,5,6,6,1,737,737
11,106,youth,List2,ran,6,6,6,1,449,449
11,107,pillory,List2,dear,7,6,6,1,430,430
11,108,hickory,List1,car,8,6,6,1,498,498
11,109,auditory,List1,rat,9,6,6,1,550,550
11,110,testify,List1,fact,10,6,6,1,1681,NA
11,111,dearth,List1,pill,11,6,6,1,487,487
11,112,career,List2,hick,12,6,6,1,800,800
11,113,ratify,List2,audit,13,6,6,1,719,719
11,114,factory,List2,test,14,6,6,1,476,476
11,115,boredom,List1,seed,15,6,6,1,581,581
11,116,tenth,List1,warm,16,6,6,1,335,335
11,117,freedom,List1,four,17,6,6,1,491,491
11,118,kingdom,List1,boy,18,6,6,1,567,567
11,119,sapling,List1,eleven,19,6,6,1,566,566
11,120,earthling,List1,six,20,6,6,1,497,497
11,121,growth,List1,duck,21,6,6,1,495,495
11,122,serfdom,List1,star,22,6,6,1,542,542
11,123,health,List1,man,23,6,6,1,447,447
11,124,seedling,List2,bore,24,6,6,1,437,437
11,125,warmth,List2,ten,25,6,6,1,542,542
11,126,fourth,List2,free,26,6,6,1,499,499
11,127,boyhood,List2,king,27,6,6,1,467,467
11,128,eleventh,List2,sap,28,6,6,1,558,558
11,129,sixth,List2,earth,29,6,6,1,664,664
11,130,duckling,List2,grow,30,6,6,1,581,581
11,131,stardom,List2,serf,31,6,6,1,691,691
11,132,manhood,List2,heal,32,6,6,1,562,562
11,133,classify,List1,cash,33,6,6,1,545,545
11,134,hotelier,List1,solid,34,6,6,1,732,732
11,135,marketeer,List1,fort,35,6,6,1,488,488
11,136,justify,List1,profit,36,6,6,1,523,523
11,137,courtier,List1,direct,37,6,6,1,533,533
11,138,nullify,List1,arm,38,6,6,1,656,656
11,139,racketeer,List1,acid,39,6,6,1,763,763
11,140,musketeer,List1,front,40,6,6,1,553,553
11,141,clothier,List1,humid,41,6,6,1,683,683
11,142,cashier,List2,class,42,6,6,1,650,650
11,143,solidify,List2,hotel,43,6,6,1,492,492
11,144,fortify,List2,market,44,6,6,1,438,438
11,145,profiteer,List2,just,45,6,6,1,498,498
11,146,directory,List2,court,46,6,6,1,568,568
11,147,armory,List2,null,47,6,6,1,522,522
11,148,acidify,List2,racket,48,6,6,1,573,573
11,149,frontier,List2,musket,49,6,6,1,573,573
11,150,humidify,List2,cloth,50,6,6,1,468,468
11,151,imply,List1,wit,51,6,6,1,668,668
11,152,witness,List2,imp,52,6,6,1,699,699
11,153,flower,List1,list,53,6,6,1,510,510
11,154,traitor,List1,past,54,6,6,1,303,303
11,155,limber,List1,ban,55,6,6,1,659,659
11,156,hunger,List1,heath,56,6,6,1,555,555
11,157,pollen,List1,mist,57,6,6,1,423,423
11,158,vanish,List1,rapt,58,6,6,1,551,551
11,159,listen,List2,flow,59,6,6,1,525,525
11,160,pastor,List2,trait,60,6,6,1,673,673
11,161,banish,List2,limb,61,6,6,1,696,696
11,162,heathen,List2,hung,62,6,6,1,598,598
11,163,mister,List2,poll,63,6,6,1,507,507
11,164,raptor,List2,van,64,6,6,1,579,579
11,165,weakness,List1,help,65,6,6,1,430,430
11,166,greatly,List1,chief,66,6,6,1,651,651
11,167,illness,List1,strong,67,6,6,1,477,477
11,168,calmness,List1,deaf,68,6,6,1,515,515
11,169,deathlike,List1,dead,69,6,6,1,532,532
11,170,waiflike,List1,sick,70,6,6,1,591,591
11,171,highly,List1,worth,71,6,6,1,515,515
11,172,stainless,List1,thank,72,6,6,1,579,579
11,173,warlike,List1,tooth,73,6,6,1,448,448
11,174,helpless,List2,weak,74,6,6,1,494,494
11,175,chiefly,List2,great,75,6,5,0,509,NA
11,176,strongly,List2,ill,76,6,6,1,510,510
11,177,deafness,List2,calm,77,6,6,1,620,620
11,178,deadly,List2,death,78,6,6,1,472,472
11,179,sickness,List2,waif,79,6,6,1,592,592
11,180,worthless,List2,high,80,6,6,1,497,497
11,181,thankless,List2,stain,81,6,6,1,598,598
11,182,toothless,List2,war,82,6,6,1,507,507
11,183,drawer,List1,tract,83,6,6,1,740,740
11,184,greenish,List1,sculpt,84,6,6,1,540,540
11,185,bookish,List1,self,85,6,6,1,546,546
11,186,drunken,List1,fresh,86,6,6,1,454,454
11,187,foolish,List1,debt,87,6,6,1,522,522
11,188,freakish,List1,pray,88,6,6,1,556,556
11,189,flaxen,List1,profess,89,6,6,1,766,766
11,190,hunter,List1,soft,90,6,6,1,445,445
11,191,sailor,List1,fast,91,6,6,1,448,448
11,192,tractor,List2,draw,92,6,6,1,496,496
11,193,sculptor,List2,green,93,6,6,1,469,469
11,194,selfish,List2,book,94,6,6,1,532,532
11,195,freshen,List2,drunk,95,6,6,1,495,495
11,196,debtor,List2,fool,96,6,6,1,485,485
11,197,prayer,List2,freak,97,6,6,1,514,514
11,198,professor,List2,flax,98,6,6,1,496,496
11,199,soften,List2,hunt,99,6,6,1,556,556
11,200,fasten,List2,sail,100,6,6,1,466,466
11,245,terrify,List1,terr,142,5,5,1,607,607
11,245,emulsify,List2,emuls,124,5,5,1,658,658
11,245,celestify,List1,celest,114,5,6,0,596,NA
11,245,modify,List1,mod,139,5,6,0,437,NA
11,245,excretory,List1,excret,124,5,6,0,266,NA
11,245,olfactory,List1,olfact,110,5,6,0,251,NA
11,245,rectory,List1,rect,128,5,6,0,498,NA
11,245,curatory,List1,curat,108,5,6,0,908,NA
11,245,stratify,List1,strat,141,5,6,0,316,NA
11,245,chevalier,List1,cheval,103,5,6,0,1040,NA
11,245,sibling,List1,sib,146,5,,0,,NA
11,245,horrify,List1,horr,138,5,5,1,823,823
11,245,monitory,List1,monit,126,5,5,1,576,576
11,245,diabolify,List1,diabol,137,5,5,1,568,568
11,245,gustatory,List1,gustat,125,5,5,1,809,809
11,245,darling,List1,dar,145,5,5,1,728,728
11,245,wisdom,List1,wis,147,5,5,1,632,632
11,245,mutineer,List1,mutin,113,5,5,1,686,686
11,245,crematory,List1,cremat,149,5,5,1,835,835
11,245,carnify,List1,carn,150,5,6,0,481,NA
11,245,calcify,List1,calc,134,5,6,0,861,NA
11,245,veneer,List1,ven,120,5,6,0,509,NA
11,245,signatory,List1,signat,132,5,6,0,751,NA
11,245,adulatory,List1,adulat,105,5,5,1,788,788
11,245,calorify,List1,calor,135,5,5,1,698,698
11,245,chandelier,List1,chandel,104,5,5,1,942,942
11,245,dandify,List1,dand,117,5,5,1,714,714
11,245,dormitory,List1,dormit,109,5,6,0,1079,NA
11,245,amatory,List1,amat,106,5,5,1,595,595
11,245,alkalify,List1,alkal,133,5,5,1,879,879
11,245,revisory,List1,revis,130,5,5,1,696,696
11,245,fructify,List1,fruct,118,5,5,1,828,828
11,245,reindeer,List1,reind,121,5,5,1,598,598
11,245,brigadier,List1,brigad,102,5,5,1,594,594
11,245,cavalier,List1,caval,101,5,5,1,935,935
11,245,donatory,List1,donat,123,5,5,1,637,637
11,245,piscatory,List1,piscat,144,5,5,1,703,703
11,245,prettify,List1,prett,140,5,6,0,507,NA
11,245,sensify,List1,sens,119,5,5,1,600,600
11,245,senatory,List1,senat,131,5,5,1,751,751
11,245,damnatory,List1,damnat,143,5,5,1,722,722
11,245,domineer,List1,domin,112,5,5,1,606,606
11,245,refectory,List1,refect,129,5,6,0,530,NA
11,245,purgatory,List1,purgat,127,5,5,1,888,888
11,245,territory,List1,territ,111,5,5,1,677,677
11,245,carbineer,List1,carbin,122,5,6,0,942,NA
11,245,capacify,List1,capac,136,5,5,1,682,682
11,245,corporify,List1,corpor,115,5,5,1,575,575
11,245,daintify,List1,daint,116,5,6,0,787,NA
11,245,offertory,List1,offert,148,5,6,0,753,NA
11,245,arbory,List1,arb,107,5,5,1,1193,1193
11,245,ropier,List2,rop,138,5,5,1,843,843
11,245,terrify,List2,terr,140,5,5,1,958,958
11,245,parading,List2,parad,150,5,5,1,710,710
11,245,crating,List2,crat,115,5,5,1,639,639
11,245,clumsier,List2,clums,110,5,5,1,760,760
11,245,blaming,List2,blam,105,5,5,1,627,627
11,245,arising,List2,aris,104,5,5,1,531,531
11,245,gliding,List2,glid,143,5,5,1,684,684
11,245,nuttier,List2,nutt,134,5,6,0,524,NA
11,245,flimsier,List2,flims,126,5,5,1,662,662
11,245,comelier,List2,comel,111,5,5,1,607,607
11,245,peskier,List2,pesk,135,5,6,0,527,NA
11,245,droning,List2,dron,121,5,5,1,568,568
11,245,culpatory,List2,culpat,116,5,5,1,914,914
11,245,competing,List2,compet,113,5,5,1,818,818
11,245,dilatory,List2,dilat,118,5,5,1,638,638
11,245,clarify,List2,clar,109,5,5,1,614,614
11,245,felicify,List2,felic,125,5,5,1,743,743
11,245,hiking,List2,hik,146,5,5,1,874,874
11,245,comparing,List2,compar,112,5,5,1,517,517
11,245,lonelier,List2,lonel,131,5,5,1,1094,1094
11,245,dandify,List2,dand,117,5,5,1,687,687
11,245,stratify,List2,strat,139,5,6,0,759,NA
11,245,apprising,List2,appris,103,5,5,1,591,591
11,245,emptier,List2,empt,122,5,5,1,895,895
11,245,purifier,List2,purif,137,5,5,1,651,651
11,245,garaging,List2,garag,142,5,5,1,636,636
11,245,punitory,List2,punit,136,5,5,1,669,669
11,245,forging,List2,forg,128,5,5,1,757,757
11,245,impeding,List2,imped,147,5,6,0,678,NA
11,245,grating,List2,grat,145,5,5,1,758,758
11,245,amusing,List2,amus,102,5,5,1,583,583
11,245,gouging,List2,goug,144,5,5,1,583,583
11,245,territory,List2,territ,141,5,5,1,559,559
11,245,lopping,List2,lopp,148,5,5,1,648,648
11,245,hortatory,List2,hortat,130,5,5,1,681,681
11,245,conditory,List2,condit,114,5,5,1,553,553
11,245,merging,List2,merg,149,5,5,1,514,514
11,245,fumify,List2,fum,129,5,5,1,577,577
11,245,nippier,List2,nipp,133,5,5,1,563,563
11,245,capturing,List2,captur,107,5,5,1,556,556
11,245,forcing,List2,forc,127,5,5,1,597,597
11,245,dinkier,List2,dink,119,5,6,0,398,NA
11,245,certify,List2,cert,108,5,5,1,703,703
11,245,emulatory,List2,emulat,123,5,5,1,591,591
11,245,dizzier,List2,dizz,120,5,5,1,632,632
11,245,candify,List2,cand,106,5,5,1,681,681
11,245,monitory,List2,monit,132,5,5,1,882,882
11,245,amplifier,List2,amplif,101,5,5,1,674,674
11,246,dishevely,List2,disheve,167,5,5,1,954,954
11,246,writhen,List2,writh,160,5,6,0,490,NA
11,246,brackish,List1,brack,192,5,6,0,393,NA
11,246,harbor,List1,harb,196,5,,0,,NA
11,246,aspirator,List1,aspirat,161,5,,0,,NA
11,246,eternish,List1,etern,151,5,6,0,773,NA
11,246,tamper,List1,tamp,175,5,6,0,474,NA
11,246,women,List1,wom,199,5,6,0,798,NA
11,246,thunder,List1,thund,176,5,6,0,336,NA
11,246,semester,List1,semest,179,5,5,1,1006,1006
11,246,burden,List1,burd,168,5,6,0,759,NA
11,246,creator,List1,creat,165,5,6,0,390,NA
11,246,hamper,List1,hamp,180,5,,0,,NA
11,246,smoulder,List1,smould,173,5,5,1,837,837
11,246,lichen,List1,lich,198,5,5,1,662,662
11,246,guinness,List1,guin,152,5,5,1,594,594
11,246,cluster,List1,clust,183,5,6,0,651,NA
11,246,comply,List1,comp,188,5,5,1,836,836
11,246,spinster,List1,spinst,174,5,5,1,926,926
11,246,betroth,List1,betro,185,5,5,1,907,907
11,246,realtor,List1,realt,166,5,6,0,899,NA
11,246,grizzly,List1,grizz,155,5,5,1,752,752
11,246,snakish,List1,snak,193,5,5,1,1369,NA
11,246,sprawly,List1,spraw,191,5,5,1,871,871
11,246,spearmen,List1,spearm,169,5,5,1,893,893
11,246,skirmish,List1,skirm,159,5,6,0,719,NA
11,246,varnish,List1,varn,160,5,5,1,785,785
11,246,corridor,List1,corrid,164,5,6,0,707,NA
11,246,pamper,List1,pamp,178,5,6,0,725,NA
11,246,birth,List1,bir,186,5,5,1,689,689
11,246,jasper,List1,jasp,181,5,5,1,710,710
11,246,mirror,List1,mirr,197,5,5,1,605,605
11,246,belly,List1,bel,187,5,5,1,561,561
11,246,sprightly,List1,spright,156,5,6,0,822,NA
11,246,trouser,List1,trous,172,5,5,1,613,613
11,246,aviator,List1,aviat,162,5,5,1,571,571
11,246,clyster,List1,clyst,184,5,5,1,817,817
11,246,purply,List1,purp,189,5,5,1,570,570
11,246,monger,List1,mong,177,5,5,1,555,555
11,246,spindly,List1,spind,190,5,6,0,673,NA
11,246,condor,List1,cond,194,5,5,1,559,559
11,246,stamen,List1,stam,171,5,5,1,833,833
11,246,bachelor,List1,bachel,163,5,5,1,718,718
11,246,brambly,List1,bramb,154,5,5,1,722,722
11,246,tinder,List1,tind,200,5,5,1,772,772
11,246,spoken,List1,spok,170,5,5,1,681,681
11,246,flemish,List1,flem,158,5,6,0,674,NA
11,246,curator,List1,curat,195,5,6,0,942,NA
11,246,simply,List1,simp,153,5,5,1,715,715
11,246,dander,List1,dand,182,5,5,1,751,751
11,246,brinish,List1,brin,157,5,5,1,597,597
11,246,broiden,List1,broid,167,5,6,0,822,NA
11,246,recaptor,List2,recapt,193,5,5,1,828,828
11,246,spindly,List2,spind,172,5,5,1,686,686
11,246,redactor,List2,redact,194,5,5,1,782,782
11,246,baroness,List2,baro,177,5,5,1,657,657
11,246,emperor,List2,emper,189,5,5,1,601,601
11,246,tolerably,List2,tolerab,198,5,5,1,514,514
11,246,angrily,List2,angri,164,5,5,1,538,538
11,246,glibly,List2,glib,169,5,5,1,626,626
11,246,haziness,List2,hazi,180,5,5,1,515,515
11,246,volubly,List2,volub,199,5,5,1,589,589
11,246,worsen,List2,wors,159,5,5,1,615,615
11,246,devisor,List2,devis,188,5,5,1,785,785
11,246,vector,List2,vect,196,5,5,1,889,889
11,246,tremor,List2,trem,195,5,5,1,676,676
11,246,variably,List2,variab,176,5,5,1,805,805
11,246,advisor,List2,advis,182,5,5,1,510,510
11,246,stolen,List2,stol,158,5,5,1,535,535
11,246,blemish,List2,blem,161,5,5,1,624,624
11,246,alluminor,List2,allumin,183,5,5,1,648,648
11,246,author,List2,auth,184,5,5,1,561,561
11,246,guinness,List2,guin,179,5,5,1,537,537
11,246,humbly,List2,humb,170,5,5,1,586,586
11,246,suitably,List2,suitab,173,5,5,1,588,588
11,246,barmen,List2,barm,151,5,5,1,564,564
11,246,colly,List2,col,166,5,5,1,653,653
11,246,trembly,List2,tremb,175,5,5,1,936,936
11,246,broken,List2,brok,153,5,5,1,801,801
11,246,aviator,List2,aviat,185,5,6,0,953,NA
11,246,cursor,List2,curs,187,5,5,1,592,592
11,246,equably,List2,equab,168,5,5,1,889,889
11,246,accusor,List2,accus,181,5,5,1,609,609
11,246,wiggly,List2,wigg,200,5,5,1,570,570
11,246,bimonthly,List2,bimonth,165,5,5,1,755,755
11,246,terribly,List2,terrib,197,5,5,1,595,595
11,246,furbish,List2,furb,162,5,6,0,692,NA
11,246,guarantor,List2,guarant,190,5,5,1,1084,1084
11,246,gotten,List2,gott,155,5,5,1,565,565
11,246,skirmish,List2,skirm,163,5,6,0,565,NA
11,246,fifteen,List2,fifte,154,5,5,1,631,631
11,246,literator,List2,literat,191,5,5,1,688,688
11,246,kitchen,List2,kitch,157,5,5,1,737,737
11,246,treacly,List2,treac,174,5,5,1,578,578
11,246,happen,List2,happ,156,5,5,1,682,682
11,246,brazen,List2,braz,152,5,5,1,619,619
11,246,censor,List2,cens,186,5,5,1,597,597
11,246,paritor,List2,parit,192,5,5,1,742,742
11,246,deaconess,List2,deaco,178,5,5,1,703,703
11,246,rally,List2,ral,171,5,5,1,666,666
12,1,breadth,List2,bread,1,6,6,1,488,488
12,2,hearth,List2,hear,2,6,6,1,407,407
12,3,youth,List2,you,3,6,6,1,395,395
12,4,kindling,List1,kind,4,6,6,1,421,421
12,5,dumpling,List1,dump,5,6,6,1,591,591
12,6,random,List1,ran,6,6,6,1,617,617
12,7,dearth,List1,dear,7,6,6,1,521,521
12,8,career,List2,car,8,6,6,1,415,415
12,9,ratify,List2,rat,9,6,6,1,423,423
12,10,factory,List2,fact,10,6,6,1,484,484
12,11,pillory,List2,pill,11,6,6,1,488,488
12,12,hickory,List1,hick,12,6,6,1,554,554
12,13,auditory,List1,audit,13,6,6,1,801,801
12,14,testify,List1,test,14,6,6,1,455,455
12,15,seedling,List2,seed,15,6,6,1,382,382
12,16,warmth,List2,warm,16,6,6,1,387,387
12,17,fourth,List2,four,17,6,6,1,409,409
12,18,boyhood,List2,boy,18,6,6,1,409,409
12,19,eleventh,List2,eleven,19,6,6,1,492,492
12,20,sixth,List2,six,20,6,6,1,404,404
12,21,duckling,List2,duck,21,6,6,1,431,431
12,22,stardom,List2,star,22,6,6,1,630,630
12,23,manhood,List2,man,23,6,6,1,499,499
12,24,boredom,List1,bore,24,6,6,1,465,465
12,25,tenth,List1,ten,25,6,6,1,582,582
12,26,freedom,List1,free,26,6,6,1,606,606
12,27,kingdom,List1,king,27,6,6,1,417,417
12,28,sapling,List1,sap,28,6,6,1,590,590
12,29,earthling,List1,earth,29,6,6,1,441,441
12,30,growth,List1,grow,30,6,6,1,603,603
12,31,serfdom,List1,serf,31,6,6,1,693,693
12,32,health,List1,heal,32,6,6,1,379,379
12,33,cashier,List2,cash,33,6,6,1,489,489
12,34,solidify,List2,solid,34,6,6,1,647,647
12,35,fortify,List2,fort,35,6,6,1,720,720
12,36,profiteer,List2,profit,36,6,6,1,440,440
12,37,directory,List2,direct,37,6,6,1,535,535
12,38,armory,List2,arm,38,6,6,1,666,666
12,39,acidify,List2,acid,39,6,6,1,504,504
12,40,frontier,List2,front,40,6,6,1,477,477
12,41,humidify,List2,humid,41,6,6,1,541,541
12,42,classify,List1,class,42,6,6,1,426,426
12,43,hotelier,List1,hotel,43,6,6,1,525,525
12,44,marketeer,List1,market,44,6,6,1,446,446
12,45,justify,List1,just,45,6,6,1,515,515
12,46,courtier,List1,court,46,6,6,1,531,531
12,47,nullify,List1,null,47,6,6,1,597,597
12,48,racketeer,List1,racket,48,6,6,1,579,579
12,49,musketeer,List1,musket,49,6,6,1,698,698
12,50,clothier,List1,cloth,50,6,6,1,493,493
12,51,witness,List2,wit,51,6,6,1,585,585
12,52,imply,List1,imp,52,6,6,1,732,732
12,53,listen,List2,list,53,6,6,1,431,431
12,54,pastor,List2,past,54,6,6,1,507,507
12,55,banish,List2,ban,55,6,6,1,495,495
12,56,heathen,List2,heath,56,6,5,0,561,NA
12,57,mister,List2,mist,57,6,6,1,537,537
12,58,raptor,List2,rapt,58,6,6,1,550,550
12,59,flower,List1,flow,59,6,6,1,572,572
12,60,traitor,List1,trait,60,6,5,0,780,NA
12,61,limber,List1,limb,61,6,6,1,629,629
12,62,hunger,List1,hung,62,6,6,1,589,589
12,63,pollen,List1,poll,63,6,6,1,543,543
12,64,vanish,List1,van,64,6,6,1,1015,1015
12,65,helpless,List2,help,65,6,6,1,414,414
12,66,chiefly,List2,chief,66,6,6,1,495,495
12,67,strongly,List2,strong,67,6,6,1,430,430
12,68,deafness,List2,deaf,68,6,6,1,431,431
12,69,deadly,List2,dead,69,6,6,1,548,548
12,70,sickness,List2,sick,70,6,6,1,407,407
12,71,worthless,List2,worth,71,6,6,1,501,501
12,72,thankless,List2,thank,72,6,6,1,570,570
12,73,toothless,List2,tooth,73,6,6,1,471,471
12,74,weakness,List1,weak,74,6,6,1,464,464
12,75,greatly,List1,great,75,6,6,1,605,605
12,76,illness,List1,ill,76,6,6,1,448,448
12,77,calmness,List1,calm,77,6,6,1,662,662
12,78,deathlike,List1,death,78,6,5,0,500,NA
12,79,waiflike,List1,waif,79,6,6,1,902,902
12,80,highly,List1,high,80,6,6,1,521,521
12,81,stainless,List1,stain,81,6,6,1,506,506
12,82,warlike,List1,war,82,6,6,1,400,400
12,83,tractor,List2,tract,83,6,6,1,658,658
12,84,sculptor,List2,sculpt,84,6,6,1,475,475
12,85,selfish,List2,self,85,6,6,1,439,439
12,86,freshen,List2,fresh,86,6,6,1,494,494
12,87,debtor,List2,debt,87,6,6,1,666,666
12,88,prayer,List2,pray,88,6,6,1,410,410
12,89,professor,List2,profess,89,6,6,1,571,571
12,90,soften,List2,soft,90,6,6,1,426,426
12,91,fasten,List2,fast,91,6,6,1,438,438
12,92,drawer,List1,draw,92,6,6,1,549,549
12,93,greenish,List1,green,93,6,6,1,480,480
12,94,bookish,List1,book,94,6,6,1,487,487
12,95,drunken,List1,drunk,95,6,6,1,580,580
12,96,foolish,List1,fool,96,6,6,1,488,488
12,97,freakish,List1,freak,97,6,6,1,456,456
12,98,flaxen,List1,flax,98,6,6,1,687,687
12,99,hunter,List1,hunt,99,6,6,1,475,475
12,100,sailor,List1,sail,100,6,5,0,699,NA
12,101,kindling,List1,bread,1,6,6,1,563,563
12,102,dumpling,List1,hear,2,6,6,1,1082,1082
12,103,random,List1,you,3,6,6,1,481,481
12,104,breadth,List2,kind,4,6,6,1,417,417
12,105,hearth,List2,dump,5,6,6,1,506,506
12,106,youth,List2,ran,6,6,6,1,486,486
12,107,pillory,List2,dear,7,6,6,1,604,604
12,108,hickory,List1,car,8,6,5,0,73,NA
12,109,auditory,List1,rat,9,6,6,1,624,624
12,110,testify,List1,fact,10,6,6,1,609,609
12,111,dearth,List1,pill,11,6,6,1,491,491
12,112,career,List2,hick,12,6,6,1,522,522
12,113,ratify,List2,audit,13,6,6,1,676,676
12,114,factory,List2,test,14,6,6,1,503,503
12,115,boredom,List1,seed,15,6,6,1,474,474
12,116,tenth,List1,warm,16,6,6,1,522,522
12,117,freedom,List1,four,17,6,5,0,584,NA
12,118,kingdom,List1,boy,18,6,6,1,425,425
12,119,sapling,List1,eleven,19,6,6,1,577,577
12,120,earthling,List1,six,20,6,6,1,470,470
12,121,growth,List1,duck,21,6,6,1,534,534
12,122,serfdom,List1,star,22,6,6,1,520,520
12,123,health,List1,man,23,6,6,1,462,462
12,124,seedling,List2,bore,24,6,6,1,629,629
12,125,warmth,List2,ten,25,6,6,1,494,494
12,126,fourth,List2,free,26,6,6,1,391,391
12,127,boyhood,List2,king,27,6,6,1,454,454
12,128,eleventh,List2,sap,28,6,5,0,552,NA
12,129,sixth,List2,earth,29,6,6,1,606,606
12,130,duckling,List2,grow,30,6,6,1,456,456
12,131,stardom,List2,serf,31,6,6,1,688,688
12,132,manhood,List2,heal,32,6,6,1,440,440
12,133,classify,List1,cash,33,6,6,1,398,398
12,134,hotelier,List1,solid,34,6,6,1,596,596
12,135,marketeer,List1,fort,35,6,6,1,621,621
12,136,justify,List1,profit,36,6,6,1,635,635
12,137,courtier,List1,direct,37,6,6,1,542,542
12,138,nullify,List1,arm,38,6,6,1,582,582
12,139,racketeer,List1,acid,39,6,6,1,622,622
12,140,musketeer,List1,front,40,6,6,1,553,553
12,141,clothier,List1,humid,41,6,5,0,602,NA
12,142,cashier,List2,class,42,6,6,1,462,462
12,143,solidify,List2,hotel,43,6,6,1,547,547
12,144,fortify,List2,market,44,6,6,1,536,536
12,145,profiteer,List2,just,45,6,6,1,419,419
12,146,directory,List2,court,46,6,6,1,708,708
12,147,armory,List2,null,47,6,6,1,815,815
12,148,acidify,List2,racket,48,6,6,1,596,596
12,149,frontier,List2,musket,49,6,6,1,485,485
12,150,humidify,List2,cloth,50,6,6,1,489,489
12,151,imply,List1,wit,51,6,6,1,500,500
12,152,witness,List2,imp,52,6,6,1,646,646
12,153,flower,List1,list,53,6,6,1,606,606
12,154,traitor,List1,past,54,6,6,1,590,590
12,155,limber,List1,ban,55,6,6,1,671,671
12,156,hunger,List1,heath,56,6,5,0,845,NA
12,157,pollen,List1,mist,57,6,5,0,152,NA
12,158,vanish,List1,rapt,58,6,5,0,900,NA
12,159,listen,List2,flow,59,6,6,1,416,416
12,160,pastor,List2,trait,60,6,6,1,609,609
12,161,banish,List2,limb,61,6,6,1,556,556
12,162,heathen,List2,hung,62,6,6,1,587,587
12,163,mister,List2,poll,63,6,6,1,514,514
12,164,raptor,List2,van,64,6,6,1,490,490
12,165,weakness,List1,help,65,6,6,1,494,494
12,166,greatly,List1,chief,66,6,6,1,582,582
12,167,illness,List1,strong,67,6,6,1,433,433
12,168,calmness,List1,deaf,68,6,6,1,455,455
12,169,deathlike,List1,dead,69,6,6,1,359,359
12,170,waiflike,List1,sick,70,6,6,1,444,444
12,171,highly,List1,worth,71,6,6,1,555,555
12,172,stainless,List1,thank,72,6,6,1,613,613
12,173,warlike,List1,tooth,73,6,6,1,429,429
12,174,helpless,List2,weak,74,6,6,1,472,472
12,175,chiefly,List2,great,75,6,6,1,458,458
12,176,strongly,List2,ill,76,6,6,1,595,595
12,177,deafness,List2,calm,77,6,6,1,557,557
12,178,deadly,List2,death,78,6,6,1,513,513
12,179,sickness,List2,waif,79,6,6,1,621,621
12,180,worthless,List2,high,80,6,6,1,414,414
12,181,thankless,List2,stain,81,6,6,1,614,614
12,182,toothless,List2,war,82,6,6,1,490,490
12,183,drawer,List1,tract,83,6,6,1,899,899
12,184,greenish,List1,sculpt,84,6,6,1,695,695
12,185,bookish,List1,self,85,6,6,1,612,612
12,186,drunken,List1,fresh,86,6,6,1,564,564
12,187,foolish,List1,debt,87,6,5,0,26,NA
12,188,freakish,List1,pray,88,6,6,1,530,530
12,189,flaxen,List1,profess,89,6,6,1,520,520
12,190,hunter,List1,soft,90,6,6,1,415,415
12,191,sailor,List1,fast,91,6,6,1,474,474
12,192,tractor,List2,draw,92,6,6,1,525,525
12,193,sculptor,List2,green,93,6,6,1,568,568
12,194,selfish,List2,book,94,6,6,1,398,398
12,195,freshen,List2,drunk,95,6,6,1,404,404
12,196,debtor,List2,fool,96,6,6,1,475,475
12,197,prayer,List2,freak,97,6,6,1,692,692
12,198,professor,List2,flax,98,6,6,1,541,541
12,199,soften,List2,hunt,99,6,6,1,550,550
12,200,fasten,List2,sail,100,6,6,1,460,460
12,245,curatory,List1,curat,108,5,5,1,209,209
12,245,gouging,List2,goug,144,5,5,1,627,627
12,245,gustatory,List1,gustat,125,5,5,1,686,686
12,245,donatory,List1,donat,123,5,5,1,983,983
12,245,crematory,List1,cremat,149,5,5,1,841,841
12,245,corporify,List1,corpor,115,5,6,0,684,NA
12,245,sensify,List1,sens,119,5,5,1,685,685
12,245,arbory,List1,arb,107,5,6,0,564,NA
12,245,celestify,List1,celest,114,5,5,1,814,814
12,245,wisdom,List1,wis,147,5,5,1,711,711
12,245,damnatory,List1,damnat,143,5,5,1,868,868
12,245,olfactory,List1,olfact,110,5,5,1,672,672
12,245,adulatory,List1,adulat,105,5,6,0,1040,NA
12,245,dandify,List1,dand,117,5,6,0,521,NA
12,245,chandelier,List1,chandel,104,5,5,1,787,787
12,245,capacify,List1,capac,136,5,5,1,633,633
12,245,amatory,List1,amat,106,5,5,1,779,779
12,245,calorify,List1,calor,135,5,5,1,669,669
12,245,offertory,List1,offert,148,5,5,1,686,686
12,245,darling,List1,dar,145,5,5,1,843,843
12,245,fructify,List1,fruct,118,5,5,1,701,701
12,245,terrify,List1,terr,142,5,5,1,660,660
12,245,mutineer,List1,mutin,113,5,5,1,581,581
12,245,revisory,List1,revis,130,5,5,1,1547,NA
12,245,daintify,List1,daint,116,5,5,1,212,212
12,245,cavalier,List1,caval,101,5,6,0,698,NA
12,245,rectory,List1,rect,128,5,5,1,1148,1148
12,245,prettify,List1,prett,140,5,6,0,563,NA
12,245,calcify,List1,calc,134,5,5,1,557,557
12,245,dormitory,List1,dormit,109,5,5,1,673,673
12,245,sibling,List1,sib,146,5,5,1,674,674
12,245,purgatory,List1,purgat,127,5,5,1,571,571
12,245,reindeer,List1,reind,121,5,5,1,749,749
12,245,piscatory,List1,piscat,144,5,5,1,607,607
12,245,refectory,List1,refect,129,5,6,0,430,NA
12,245,monitory,List1,monit,126,5,5,1,762,762
12,245,senatory,List1,senat,131,5,5,1,535,535
12,245,territory,List1,territ,111,5,5,1,616,616
12,245,stratify,List1,strat,141,5,5,1,669,669
12,245,diabolify,List1,diabol,137,5,5,1,544,544
12,245,carbineer,List1,carbin,122,5,5,1,549,549
12,245,brigadier,List1,brigad,102,5,5,1,908,908
12,245,chevalier,List1,cheval,103,5,5,1,621,621
12,245,domineer,List1,domin,112,5,5,1,782,782
12,245,horrify,List1,horr,138,5,5,1,754,754
12,245,excretory,List1,excret,124,5,5,1,617,617
12,245,alkalify,List1,alkal,133,5,5,1,585,585
12,245,veneer,List1,ven,120,5,5,1,754,754
12,245,modify,List1,mod,139,5,6,0,443,NA
12,245,signatory,List1,signat,132,5,6,0,820,NA
12,245,carnify,List1,carn,150,5,6,0,587,NA
12,245,dizzier,List2,dizz,120,5,6,0,493,NA
12,245,dilatory,List2,dilat,118,5,5,1,607,607
12,245,clarify,List2,clar,109,5,5,1,608,608
12,245,emulatory,List2,emulat,123,5,5,1,10,NA
