"","subject","trigger","prime.x","list.x","target","stemid","correct_response","target.resp","target.acc","target.rt","target.rt.trm.err","relatedness","w_word","stem","affix","whl_word_len","afx_len","stem_len","transp","afx_onset","stem_frq","stem_logfrq","whl_word_freq","whl_word_logfrq","rel_frq","prime.y","afx_frq","med_splt","r1_splt","r1.5_splt","list.y"
"1",7,1,"breadth","List1","bread",1,6,6,1,469,469,"related","breadth","bread","th",7,2,5,"opaque","consonant",76.9836,1.89200328,4.40246,0.73259156,2.58261681,"breadth","low","high","high","high","A"
"2",7,2,"hearth","List1","hear",2,6,6,1,497,497,"related","hearth","hear","th",6,2,4,"opaque","consonant",183.476,2.265939873,4.64044,0.751312984,3.01597326,"hearth","low","high","high","high","A"
"3",7,3,"youth","List1","you",3,6,6,1,504,504,"related","youth","you","th",5,2,3,"opaque","consonant",6334.67,3.801792548,63.4788,1.809416946,2.101114701,"youth","low","low","high","high","A"
"4",7,4,"kindling","List2","kind",4,6,6,1,667,667,"related","kindling","kind","ling",8,4,4,"opaque","consonant",409.846,2.613679063,0.951884,0.290454004,8.998598807,"kindling","low","high","high","high","B"
"5",7,5,"dumpling","List2","dump",5,6,6,1,502,502,"related","dumpling","dump","ling",8,4,4,"opaque","consonant",7.67457,0.938247956,0.356957,0.132566086,7.077586563,"dumpling","low","high","high","high","B"
"6",7,6,"random","List2","ran",6,6,6,1,1141,1141,"related","random","ran","dom",6,3,3,"opaque","consonant",116.606,2.070429479,18.2643,1.284753233,1.61153864,"random","low","low","high","high","B"
"7",7,7,"dearth","List2","dear",7,6,6,1,687,687,"related","dearth","dear","th",6,2,4,"opaque","consonant",119.58,2.08127528,0.951884,0.290454004,7.16559332690214,"dearth","low","high","high","high","B"
"8",7,8,"career","List1","car",8,6,6,1,827,827,"related","career","car","eer",6,3,3,"opaque","vowel",274.916,2.440776885,57.1725,1.764717728,1.383097617,"career","low","low","high","low","A"
"9",7,9,"ratify","List1","rat",9,6,6,1,480,480,"related","ratify","rat","ify",6,3,3,"opaque","vowel",8.68594,0.986141774,0.713913,0.233988773,4.214483273,"ratify","low","high","high","high","A"
"10",7,10,"factory","List1","fact",10,6,6,1,607,607,"related","factory","fact","ory",7,3,4,"opaque","vowel",448.635,2.65286011,39.2652,1.604929861,1.65294457584216,"factory","low","low","high","high","A"
"11",7,11,"pillory","List1","pill",11,6,6,1,611,611,"related","pillory","pill","ory",7,3,4,"opaque","vowel",13.8023,1.170329202,0.416449,0.151200942,7.740224226,"pillory","low","high","high","high","A"
"12",7,12,"hickory","List2","hick",12,6,6,1,555,555,"related","hickory","hick","ory",7,3,4,"opaque","vowel",1.24935,0.352057037,1.13036,0.328452999,1.071864276,"hickory","low","low","high","low","B"
"13",7,13,"auditory","List2","audit",13,6,5,0,441,NA,"related","auditory","audit","ory",8,3,5,"opaque","vowel",1.6063,0.416024404,0.356957,0.132566086,3.138241562,"auditory","low","high","high","high","B"
"14",7,14,"testify","List2","test",14,6,6,1,501,501,"related","testify","test","ify",7,3,4,"opaque","vowel",79.4228,1.905379189,5.23536,0.794861533,2.397120891,"testify","low","high","high","high","B"
"15",7,15,"seedling","List1","seed",15,6,6,1,533,533,"related","seedling","seed","ling",8,4,4,"transparent","consonant",28.616,1.471526401,0.594928,0.202741082,7.258155965,"seedling","low","high","high","high","A"
"16",7,16,"warmth","List1","warm",16,6,6,1,469,469,"related","warmth","warm","th",6,2,4,"transparent","consonant",94.177,1.978532012,24.987,1.414756146,1.398496848,"warmth","low","low","high","low","A"
"17",7,17,"fourth","List1","four",17,6,6,1,439,439,"related","fourth","four","th",6,2,4,"transparent","consonant",319.714,2.506117918,45.274,1.665337042,1.504871298,"fourth","low","low","high","high","A"
"18",7,18,"boyhood","List1","boy",18,6,6,1,430,430,"related","boyhood","boy","hood",7,4,3,"transparent","consonant",223.871,2.351933451,4.52145,0.742053144,3.16949462,"boyhood","low","high","high","high","A"
"19",7,19,"eleventh","List1","eleven",19,6,6,1,489,489,"related","eleventh","eleven","th",8,2,6,"transparent","consonant",40.0386,1.613192537,4.69993,0.755869522,2.134220904,"eleventh","low","low","high","high","A"
"20",7,20,"sixth","List1","six",20,6,6,1,581,581,"related","sixth","six","th",5,2,3,"transparent","consonant",203.227,2.310113158,16.063,1.232055391,1.875007547,"sixth","low","low","high","high","A"
"21",7,21,"duckling","List1","duck",21,6,6,1,741,741,"related","duckling","duck","ling",8,4,4,"transparent","consonant",9.8758,1.036461213,0.297464,0.113095317,9.164492672,"duckling","low","high","high","high","A"
"22",7,22,"stardom","List1","star",22,6,6,1,504,504,"related","stardom","star","dom",7,3,4,"transparent","consonant",54.6738,1.745650865,1.13036,0.328452999,5.314766085,"stardom","low","high","high","high","A"
"23",7,23,"manhood","List1","man",23,6,6,1,436,436,"related","manhood","man","hood",7,4,3,"transparent","consonant",1024.11,3.01077047,6.06826,0.849312516,3.5449500740138,"manhood","low","high","high","high","A"
"24",7,24,"boredom","List2","bore",24,6,6,1,547,547,"related","boredom","bore","dom",7,3,4,"transparent","consonant",28.497,1.469777848,15.2301,1.210321196,1.214370079,"boredom","low","low","high","low","B"
"25",7,25,"tenth","List2","ten",25,6,6,1,456,456,"related","tenth","ten","th",5,2,3,"transparent","consonant",219.647,2.343698027,10.5302,1.061836841,2.207211065,"tenth","low","low","high","high","B"
"26",7,26,"freedom","List2","free",26,6,6,1,563,563,"related","freedom","free","dom",7,3,4,"transparent","consonant",209.652,2.323565587,101.673,2.011456252,1.155165857,"freedom","low","low","high","low","B"
"27",7,27,"kingdom","List2","king",27,6,6,1,474,474,"related","kingdom","king","dom",7,3,4,"transparent","consonant",91.7378,1.967256789,28.973,1.476730214,1.332170744,"kingdom","low","low","high","low","B"
"28",7,28,"sapling","List2","sap",28,6,6,1,605,605,"related","sapling","sap","ling",7,4,3,"transparent","consonant",2.79616,0.579344509,0.713913,0.233988773,2.475950017,"sapling","low","high","high","high","B"
"29",7,29,"earthling","List2","earth",29,6,6,1,512,512,"related","earthling","earth","ling",9,4,5,"transparent","consonant",161.999,2.21218494,0.237971,0.092710471,23.861219690479,"earthling","low","high","high","high","B"
"30",7,30,"growth","List2","grow",30,6,5,0,374,NA,"related","growth","grow","th",6,2,4,"transparent","consonant",95.4264,1.984195953,121.841,2.089343343,0.949674432,"growth","low","low","low","low","B"
"31",7,31,"serfdom","List2","serf",31,6,6,1,592,592,"related","serfdom","serf","dom",7,3,4,"transparent","consonant",0.356957,0.132566086,0.237971,0.092710471,1.429893335,"serfdom","low","low","high","low","B"
"32",7,32,"health","List2","heal",32,6,6,1,666,666,"related","health","heal","th",6,2,4,"transparent","consonant",4.75942,0.76037875,130.587,2.119212986,0.35880242083473,"health","low","low","low","low","B"
"33",7,33,"cashier","List1","cash",33,6,6,1,497,497,"related","cashier","cash","ier",7,3,4,"transparent","vowel",54.3169,1.742857834,2.20123,0.505316878,3.449039418,"cashier","low","high","high","high","A"
"34",7,34,"solidify","List1","solid",34,6,6,1,533,533,"related","solidify","solid","ify",8,3,5,"transparent","vowel",46.5233,1.67690659,0.475942,0.169069291,9.91845751622358,"solidify","low","high","high","high","A"
"35",7,35,"fortify","List1","fort",35,6,6,1,696,696,"related","fortify","fort","ify",7,3,4,"transparent","vowel",23.7971,1.394400893,1.18986,0.340416351,4.09616308,"fortify","low","high","high","high","A"
"36",7,36,"profiteer","List1","profit",36,6,6,1,886,886,"related","profiteer","profit","eer",9,3,6,"transparent","vowel",36.945,1.579154557,0.118986,0.048824653,32.343384492,"profiteer","low","high","high","high","A"
"37",7,37,"directory","List1","direct",37,6,5,0,543,NA,"related","directory","direct","ory",9,3,6,"transparent","vowel",94.2365,1.978803426,3.98601,0.697753145,2.835964893,"directory","low","high","high","high","A"
"38",7,38,"armory","List1","arm",38,6,6,1,654,654,"related","armory","arm","ory",6,3,3,"transparent","vowel",111.132,2.049729568,0,0,2049729568,"armory","low","high","high","high","A"
"39",7,39,"acidify","List1","acid",39,6,6,1,577,577,"related","acidify","acid","ify",7,3,4,"transparent","vowel",21.8933,1.359708399,0,0,1359708399,"acidify","low","high","high","high","A"
"40",7,40,"frontier","List1","front",40,6,6,1,663,663,"related","frontier","front","ier",8,3,5,"transparent","vowel",263.077,2.421730578,13.0884,1.148861674,2.107939216,"frontier","low","low","high","high","A"
"41",7,41,"humidify","List1","humid",41,6,6,1,400,400,"related","humidify","humid","ify",8,3,5,"transparent","vowel",3.03413,0.605749889,0.237971,0.092710471,6.533780661,"humidify","low","high","high","high","A"
"42",7,42,"classify","List2","class",42,6,6,1,478,478,"related","classify","class","ify",8,3,5,"transparent","vowel",203.287,2.310240731,1.6658,0.425827564,5.425296343,"classify","low","high","high","high","B"
"43",7,43,"hotelier","List2","hotel",43,6,6,1,604,604,"related","hotelier","hotel","ier",8,3,5,"transparent","vowel",125.589,2.102395969,0.178478,0.071321479,29.47773895,"hotelier","low","high","high","high","B"
"44",7,44,"marketeer","List2","market",44,6,6,1,541,541,"related","marketeer","market","eer",9,3,6,"transparent","vowel",132.55,2.125643892,0.178478,0.071321479,29.803698577,"marketeer","low","high","high","high","B"
"45",7,45,"justify","List2","just",45,6,6,1,506,506,"related","justify","just","ify",7,3,4,"transparent","vowel",1236.44,3.09252415,16.42,1.241048151,2.49186475562312,"justify","low","high","high","high","B"
"46",7,46,"courtier","List2","court",46,6,6,1,538,538,"related","courtier","court","ier",8,3,5,"transparent","vowel",128.088,2.110885872,1.6063,0.416024404,5.073947217,"courtier","low","high","high","high","B"
"47",7,47,"nullify","List2","null",47,6,6,1,567,567,"related","nullify","null","ify",7,3,4,"transparent","vowel",0.356957,0.132566086,0.713913,0.233988773,0.566548915,"nullify","low","low","low","low","B"
"48",7,48,"racketeer","List2","racket",48,6,6,1,528,528,"related","racketeer","racket","eer",9,3,6,"transparent","vowel",11.7201,1.104490526,0.0594928,0.02509801,44.0070938689126,"racketeer","low","high","high","high","B"
"49",7,49,"musketeer","List2","musket",49,6,6,1,479,479,"related","musketeer","musket","eer",9,3,6,"transparent","vowel",0.65442,0.218645772,0,0,218645772,"musketeer","low","high","high","high","B"
"50",7,50,"clothier","List2","cloth",50,6,6,1,717,717,"related","clothier","cloth","ier",8,3,5,"transparent","vowel",47.2967,1.683917457,0,0,1683917457,"clothier","low","high","high","high","B"
"51",7,51,"witness","List1","wit",51,6,6,1,572,572,"related","witness","wit","ness",7,4,3,"opaque","consonant",11.0062,1.079405574,23.7376,1.393357563,0.774679524,"witness","high","low","low","low","A"
"52",7,52,"imply","List2","imp",52,6,5,0,779,NA,"related","imply","imp","ly",5,2,3,"opaque","consonant",1.01138,0.303494127,12.1365,1.11847967,0.271345233059672,"imply","high","low","low","low","B"
"53",7,53,"listen","List1","list",53,6,6,1,743,743,"related","listen","list","en",6,2,4,"opaque","vowel",74.6634,1.878885853,75.4368,1.883302497,0.99765484,"listen","high","low","low","low","A"
"54",7,54,"pastor","List1","past",54,6,6,1,549,549,"related","pastor","past","or",6,2,4,"opaque","vowel",273.786,2.438994602,3.62906,0.66549281,3.66494507782143,"pastor","high","high","high","high","A"
"55",7,55,"banish","List1","ban",55,6,6,1,513,513,"related","banish","ban","ish",6,3,3,"opaque","vowel",13.6833,1.166823672,2.14174,0.497170241,2.346929831,"banish","high","low","high","high","A"
"56",7,56,"heathen","List1","heath",56,6,6,1,475,475,"related","heathen","heath","en",7,2,5,"opaque","vowel",13.6238,1.165060239,2.55819,0.551229135,2.113567957,"heathen","high","low","high","high","A"
"57",7,57,"mister","List1","mist",57,6,6,1,471,471,"related","mister","mist","er",6,2,4,"opaque","vowel",13.8023,1.170329202,7.02015,0.904182491,1.294350656,"mister","high","low","high","low","A"
"58",7,58,"raptor","List1","rapt",58,6,6,1,663,663,"related","raptor","rapt","or",6,2,4,"opaque","vowel",2.14174,0.497170241,0,0,497170241,"raptor","high","high","high","high","A"
"59",7,59,"flower","List2","flow",59,6,6,1,554,554,"related","flower","flow","er",6,2,4,"opaque","vowel",41.9424,1.632886313,27.9616,1.461822551,1.11702088,"flower","high","low","high","low","B"
"60",7,60,"traitor","List2","trait",60,6,6,1,528,528,"related","traitor","trait","or",7,2,5,"opaque","vowel",3.2721,0.63064141,6.18725,0.856562752,0.736246594649674,"traitor","high","low","low","low","B"
"61",7,61,"limber","List2","limb",61,6,6,1,629,629,"related","limber","limb","er",6,2,4,"opaque","vowel",7.91254,0.950001492,0.773406,0.248808173,3.818208529,"limber","high","high","high","high","B"
"62",7,62,"hunger","List2","hung",62,6,5,0,286,NA,"related","hunger","hung","er",6,2,4,"opaque","vowel",58.6004,1.775249174,25.2249,1.418713841,1.251308841,"hunger","high","low","high","low","B"
"63",7,63,"pollen","List2","poll",63,6,6,1,522,522,"related","pollen","poll","en",6,2,4,"opaque","vowel",8.38848,0.972595285,5.88978,0.838205355,1.160330554,"pollen","high","low","high","low","B"
"64",7,64,"vanish","List2","van",64,6,6,1,483,483,"related","vanish","van","ish",6,3,3,"opaque","vowel",56.3396,1.758454659,6.18725,0.856562752,2.052919827,"vanish","high","low","high","high","B"
"65",7,65,"helpless","List1","help",65,6,6,1,544,544,"related","helpless","help","less",8,4,4,"transparent","consonant",375.221,2.575443033,19.3351,1.308246312,1.968622428,"helpless","high","low","high","high","A"
"66",7,66,"chiefly","List1","chief",66,6,6,1,509,509,"related","chiefly","chief","ly",7,2,5,"transparent","consonant",105.54,2.027512692,11.3036,1.090032203,1.860048432,"chiefly","high","low","high","high","A"
"67",7,67,"strongly","List1","strong",67,6,6,1,428,428,"related","strongly","strong","ly",8,2,6,"transparent","consonant",167.948,2.227753055,42.3588,1.637077254,1.360811195,"strongly","high","low","high","low","A"
"68",7,68,"deafness","List1","deaf",68,6,6,1,480,480,"related","deafness","deaf","ness",8,4,4,"transparent","consonant",9.51884,1.021967849,2.08225,0.488867861,2.090478693,"deafness","high","low","high","high","A"
"69",7,69,"deadly","List1","dead",69,6,6,1,453,453,"related","deadly","dead","ly",6,2,4,"transparent","consonant",190.079,2.28121296,13.6833,1.166823672,1.95506228814746,"deadly","high","low","high","high","A"
"70",7,70,"sickness","List1","sick",70,6,6,1,471,471,"related","sickness","sick","ness",8,4,4,"transparent","consonant",70.6179,1.855021582,16.4795,1.242529006,1.492940263,"sickness","high","low","high","low","A"
"71",7,71,"worthless","List1","worth",71,6,6,1,518,518,"related","worthless","worth","less",9,4,5,"transparent","consonant",99.1149,2.000498718,5.17587,0.790698146,2.530040984,"worthless","high","high","high","high","A"
"72",7,72,"thankless","List1","thank",72,6,6,1,451,451,"related","thankless","thank","less",9,4,5,"transparent","consonant",69.4875,1.848112108,0.65442,0.218645772,8.452539844,"thankless","high","high","high","high","A"
"73",7,73,"toothless","List1","tooth",73,6,6,1,498,498,"related","toothless","tooth","less",9,NA,5,"transparent","consonant",13.5643,1.163289616,1.84428,0.453972347,2.562468003,"toothless","high","high","high","high","A"
"74",7,74,"weakness","List2","weak",74,6,6,1,461,461,"related","weakness","weak","ness",8,4,4,"transparent","consonant",47.9512,1.689763343,21.8338,1.358578193,1.243773344,"weakness","high","low","high","low","B"
"75",7,75,"greatly","List2","great",75,6,6,1,527,527,"related","greatly","great","ly",7,2,5,"transparent","consonant",639.726,2.806672348,40.3361,1.616329499,1.736448136,"greatly","high","low","high","high","B"
"76",7,76,"illness","List2","ill",76,6,6,1,617,617,"related","illness","ill","ness",7,4,3,"transparent","consonant",56.5181,1.759804532,35.3982,1.561079907,1.127299457,"illness","high","low","high","low","B"
"77",7,77,"calmness","List2","calm",77,6,6,1,487,487,"related","calmness","calm","ness",8,4,4,"transparent","consonant",41.288,1.626217146,1.01138,0.303494127,5.358315025,"calmness","high","high","high","high","B"
"78",7,78,"deathlike","List2","death",78,6,6,1,742,742,"related","deathlike","death","like",9,4,5,"transparent","consonant",233.152,2.369497872,0,0,2369497872,"deathlike","high","high","high","high","B"
"79",7,79,"waiflike","List2","waif",79,6,5,0,649,NA,"related","waiflike","waif","like",8,4,4,"transparent","consonant",0.773406,0.248808173,0,0,248808173,"waiflike","high","high","high","high","B"
"80",7,80,"highly","List2","high",80,6,6,1,591,591,"related","highly","high","ly",6,2,4,"transparent","consonant",369.866,2.56921702,93.8796,1.977172845,1.2994397658241,"highly","high","low","high","low","B"
"81",7,81,"stainless","List2","stain",81,6,6,1,534,534,"related","stainless","stain","less",9,4,5,"transparent","consonant",7.3771,0.9230937,2.37971,0.528879437,1.7453764197957,"stainless","high","low","high","high","B"
"82",7,82,"warlike","List2","war",82,6,6,1,488,488,"related","warlike","war","like",7,4,3,"transparent","consonant",340.12,2.532907183,1.6063,0.416024404,6.088362011,"warlike","high","high","high","high","B"
"83",7,83,"tractor","List1","tract",83,6,6,1,872,872,"related","tractor","tract","or",7,2,5,"transparent","vowel",3.45058,0.648416612,7.25812,0.916881189,0.707198074,"tractor","high","low","low","low","A"
"84",7,84,"sculptor","List1","sculpt",84,6,5,0,485,NA,"related","sculptor","sculpt","or",8,2,6,"transparent","vowel",0,0,3.62906,0.66549281,0,"sculptor","high","low","low","low","A"
"85",7,85,"selfish","List1","self",85,6,6,1,495,495,"related","selfish","self","ish",7,3,4,"transparent","vowel",38.9083,1.601063228,12.196,1.120442307,1.428956419,"selfish","high","low","high","low","A"
"86",7,86,"freshen","List1","fresh",86,6,6,1,459,459,"related","freshen","fresh","en",7,2,5,"transparent","vowel",73.8305,1.874078647,0.475942,0.169069291,11.084677914,"freshen","high","high","high","high","A"
"87",7,87,"debtor","List1","debt",87,6,5,0,555,NA,"related","debtor","debt","or",6,2,4,"transparent","vowel",26.1768,1.434198318,0.951884,0.290454004,4.937781175,"debtor","high","high","high","high","A"
"88",7,88,"prayer","List1","pray",88,6,6,1,491,491,"related","prayer","pray","er",6,2,4,"transparent","vowel",15.1707,1.20872882,20.5845,1.334141993,0.90599713181654,"prayer","high","low","low","low","A"
"89",7,89,"professor","List1","profess",89,6,6,1,796,796,"related","professor","profess","or",9,2,7,"transparent","vowel",0.951884,0.290454004,74.9609,1.880590102,0.154448332,"professor","high","low","low","low","A"
"90",7,90,"soften","List1","soft",90,6,6,1,510,510,"related","soften","soft","en",6,2,4,"transparent","vowel",81.0886,1.914282849,4.04551,0.702905071,2.723387446,"soften","high","high","high","high","A"
"91",7,91,"fasten","List1","fast",91,6,6,1,579,579,"related","fasten","fast","en",6,2,4,"transparent","vowel",102.982,2.016958166,2.85565,0.586097604,3.441334939,"fasten","high","high","high","high","A"
"92",7,92,"drawer","List2","draw",92,6,5,0,503,NA,"related","drawer","draw","er",6,2,4,"transparent","vowel",58.7194,1.776115436,16.0036,1.23054088,1.44336158466888,"drawer","high","low","high","low","B"
"93",7,93,"greenish","List2","green",93,6,6,1,474,474,"related","greenish","green","ish",8,3,5,"transparent","vowel",154.027,2.190407343,2.73667,0.572484745,3.826140973,"greenish","high","high","high","high","B"
"94",7,94,"bookish","List2","book",94,6,6,1,485,485,"related","bookish","book","ish",7,3,4,"transparent","vowel",252.249,2.403547739,1.6063,0.416024404,5.777420051,"bookish","high","high","high","high","B"
"95",7,95,"drunken","List2","drunk",95,6,6,1,538,538,"related","drunken","drunk","en",7,2,5,"transparent","vowel",38.4918,1.596506929,8.21,0.96425963,1.65568160034276,"drunken","high","low","high","high","B"
"96",7,96,"foolish","List2","fool",96,6,6,1,472,472,"related","foolish","fool","ish",7,3,4,"transparent","vowel",37.4804,1.585239578,20.525,1.33294316,1.18927770094167,"foolish","high","low","high","low","B"
"97",7,97,"freakish","List2","freak",97,6,6,1,480,480,"related","freakish","freak","ish",8,3,5,"transparent","vowel",5.35435,0.803071132,0.713913,0.233988773,3.432092567,"freakish","high","high","high","high","B"
"98",7,98,"flaxen","List2","flax",98,6,6,1,493,493,"related","flaxen","flax","en",6,2,4,"transparent","vowel",2.20123,0.505316878,0.118986,0.048824653,10.349625376,"flaxen","high","high","high","high","B"
"99",7,99,"hunter","List2","hunt",99,6,6,1,525,525,"related","hunter","hunt","er",6,2,4,"transparent","vowel",22.9642,1.379562935,11.8391,1.108534581,1.244492465,"hunter","high","low","high","low","B"
"100",7,100,"sailor","List2","sail",100,6,6,1,476,476,"related","sailor","sail","or",6,2,4,"transparent","vowel",8.21,0.96425963,5.88978,0.838205355,1.15038590853385,"sailor","high","low","high","low","B"
"101",7,101,"kindling","List2","bread",1,6,6,1,470,470,"unrelated","breadth","bread","th",7,2,5,"opaque","consonant",76.9836,1.89200328,4.40246,0.73259156,2.58261681,"breadth","low","high","high","high","A"
"102",7,102,"dumpling","List2","hear",2,6,6,1,499,499,"unrelated","hearth","hear","th",6,2,4,"opaque","consonant",183.476,2.265939873,4.64044,0.751312984,3.01597326,"hearth","low","high","high","high","A"
"103",7,103,"random","List2","you",3,6,6,1,419,419,"unrelated","youth","you","th",5,2,3,"opaque","consonant",6334.67,3.801792548,63.4788,1.809416946,2.101114701,"youth","low","low","high","high","A"
"104",7,104,"breadth","List1","kind",4,6,6,1,591,591,"unrelated","kindling","kind","ling",8,4,4,"opaque","consonant",409.846,2.613679063,0.951884,0.290454004,8.998598807,"kindling","low","high","high","high","B"
"105",7,105,"hearth","List1","dump",5,6,6,1,390,390,"unrelated","dumpling","dump","ling",8,4,4,"opaque","consonant",7.67457,0.938247956,0.356957,0.132566086,7.077586563,"dumpling","low","high","high","high","B"
"106",7,106,"youth","List1","ran",6,6,6,1,561,561,"unrelated","random","ran","dom",6,3,3,"opaque","consonant",116.606,2.070429479,18.2643,1.284753233,1.61153864,"random","low","low","high","high","B"
"107",7,107,"pillory","List1","dear",7,6,6,1,637,637,"unrelated","dearth","dear","th",6,2,4,"opaque","consonant",119.58,2.08127528,0.951884,0.290454004,7.16559332690214,"dearth","low","high","high","high","B"
"108",7,108,"hickory","List2","car",8,6,6,1,491,491,"unrelated","career","car","eer",6,3,3,"opaque","vowel",274.916,2.440776885,57.1725,1.764717728,1.383097617,"career","low","low","high","low","A"
"109",7,109,"auditory","List2","rat",9,6,6,1,596,596,"unrelated","ratify","rat","ify",6,3,3,"opaque","vowel",8.68594,0.986141774,0.713913,0.233988773,4.214483273,"ratify","low","high","high","high","A"
"110",7,110,"testify","List2","fact",10,6,6,1,478,478,"unrelated","factory","fact","ory",7,3,4,"opaque","vowel",448.635,2.65286011,39.2652,1.604929861,1.65294457584216,"factory","low","low","high","high","A"
"111",7,111,"dearth","List2","pill",11,6,6,1,455,455,"unrelated","pillory","pill","ory",7,3,4,"opaque","vowel",13.8023,1.170329202,0.416449,0.151200942,7.740224226,"pillory","low","high","high","high","A"
"112",7,112,"career","List1","hick",12,6,6,1,559,559,"unrelated","hickory","hick","ory",7,3,4,"opaque","vowel",1.24935,0.352057037,1.13036,0.328452999,1.071864276,"hickory","low","low","high","low","B"
"113",7,113,"ratify","List1","audit",13,6,5,0,572,NA,"unrelated","auditory","audit","ory",8,3,5,"opaque","vowel",1.6063,0.416024404,0.356957,0.132566086,3.138241562,"auditory","low","high","high","high","B"
"114",7,114,"factory","List1","test",14,6,6,1,630,630,"unrelated","testify","test","ify",7,3,4,"opaque","vowel",79.4228,1.905379189,5.23536,0.794861533,2.397120891,"testify","low","high","high","high","B"
"115",7,115,"boredom","List2","seed",15,6,6,1,475,475,"unrelated","seedling","seed","ling",8,4,4,"transparent","consonant",28.616,1.471526401,0.594928,0.202741082,7.258155965,"seedling","low","high","high","high","A"
"116",7,116,"tenth","List2","warm",16,6,6,1,473,473,"unrelated","warmth","warm","th",6,2,4,"transparent","consonant",94.177,1.978532012,24.987,1.414756146,1.398496848,"warmth","low","low","high","low","A"
"117",7,117,"freedom","List2","four",17,6,5,0,451,NA,"unrelated","fourth","four","th",6,2,4,"transparent","consonant",319.714,2.506117918,45.274,1.665337042,1.504871298,"fourth","low","low","high","high","A"
"118",7,118,"kingdom","List2","boy",18,6,6,1,419,419,"unrelated","boyhood","boy","hood",7,4,3,"transparent","consonant",223.871,2.351933451,4.52145,0.742053144,3.16949462,"boyhood","low","high","high","high","A"
"119",7,119,"sapling","List2","eleven",19,6,5,0,589,NA,"unrelated","eleventh","eleven","th",8,2,6,"transparent","consonant",40.0386,1.613192537,4.69993,0.755869522,2.134220904,"eleventh","low","low","high","high","A"
"120",7,120,"earthling","List2","six",20,6,6,1,688,688,"unrelated","sixth","six","th",5,2,3,"transparent","consonant",203.227,2.310113158,16.063,1.232055391,1.875007547,"sixth","low","low","high","high","A"
"121",7,121,"growth","List2","duck",21,6,6,1,484,484,"unrelated","duckling","duck","ling",8,4,4,"transparent","consonant",9.8758,1.036461213,0.297464,0.113095317,9.164492672,"duckling","low","high","high","high","A"
"122",7,122,"serfdom","List2","star",22,6,6,1,468,468,"unrelated","stardom","star","dom",7,3,4,"transparent","consonant",54.6738,1.745650865,1.13036,0.328452999,5.314766085,"stardom","low","high","high","high","A"
"123",7,123,"health","List2","man",23,6,6,1,522,522,"unrelated","manhood","man","hood",7,4,3,"transparent","consonant",1024.11,3.01077047,6.06826,0.849312516,3.5449500740138,"manhood","low","high","high","high","A"
"124",7,124,"seedling","List1","bore",24,6,6,1,932,932,"unrelated","boredom","bore","dom",7,3,4,"transparent","consonant",28.497,1.469777848,15.2301,1.210321196,1.214370079,"boredom","low","low","high","low","B"
"125",7,125,"warmth","List1","ten",25,6,6,1,674,674,"unrelated","tenth","ten","th",5,2,3,"transparent","consonant",219.647,2.343698027,10.5302,1.061836841,2.207211065,"tenth","low","low","high","high","B"
"126",7,126,"fourth","List1","free",26,6,6,1,466,466,"unrelated","freedom","free","dom",7,3,4,"transparent","consonant",209.652,2.323565587,101.673,2.011456252,1.155165857,"freedom","low","low","high","low","B"
"127",7,127,"boyhood","List1","king",27,6,6,1,501,501,"unrelated","kingdom","king","dom",7,3,4,"transparent","consonant",91.7378,1.967256789,28.973,1.476730214,1.332170744,"kingdom","low","low","high","low","B"
"128",7,128,"eleventh","List1","sap",28,6,6,1,564,564,"unrelated","sapling","sap","ling",7,4,3,"transparent","consonant",2.79616,0.579344509,0.713913,0.233988773,2.475950017,"sapling","low","high","high","high","B"
"129",7,129,"sixth","List1","earth",29,6,6,1,495,495,"unrelated","earthling","earth","ling",9,4,5,"transparent","consonant",161.999,2.21218494,0.237971,0.092710471,23.861219690479,"earthling","low","high","high","high","B"
"130",7,130,"duckling","List1","grow",30,6,6,1,494,494,"unrelated","growth","grow","th",6,2,4,"transparent","consonant",95.4264,1.984195953,121.841,2.089343343,0.949674432,"growth","low","low","low","low","B"
"131",7,131,"stardom","List1","serf",31,6,5,0,606,NA,"unrelated","serfdom","serf","dom",7,3,4,"transparent","consonant",0.356957,0.132566086,0.237971,0.092710471,1.429893335,"serfdom","low","low","high","low","B"
"132",7,132,"manhood","List1","heal",32,6,6,1,517,517,"unrelated","health","heal","th",6,2,4,"transparent","consonant",4.75942,0.76037875,130.587,2.119212986,0.35880242083473,"health","low","low","low","low","B"
"133",7,133,"classify","List2","cash",33,6,6,1,454,454,"unrelated","cashier","cash","ier",7,3,4,"transparent","vowel",54.3169,1.742857834,2.20123,0.505316878,3.449039418,"cashier","low","high","high","high","A"
"134",7,134,"hotelier","List2","solid",34,6,6,1,512,512,"unrelated","solidify","solid","ify",8,3,5,"transparent","vowel",46.5233,1.67690659,0.475942,0.169069291,9.91845751622358,"solidify","low","high","high","high","A"
"135",7,135,"marketeer","List2","fort",35,6,6,1,534,534,"unrelated","fortify","fort","ify",7,3,4,"transparent","vowel",23.7971,1.394400893,1.18986,0.340416351,4.09616308,"fortify","low","high","high","high","A"
"136",7,136,"justify","List2","profit",36,6,5,0,620,NA,"unrelated","profiteer","profit","eer",9,3,6,"transparent","vowel",36.945,1.579154557,0.118986,0.048824653,32.343384492,"profiteer","low","high","high","high","A"
"137",7,137,"courtier","List2","direct",37,6,6,1,653,653,"unrelated","directory","direct","ory",9,3,6,"transparent","vowel",94.2365,1.978803426,3.98601,0.697753145,2.835964893,"directory","low","high","high","high","A"
"138",7,138,"nullify","List2","arm",38,6,6,1,505,505,"unrelated","armory","arm","ory",6,3,3,"transparent","vowel",111.132,2.049729568,0,0,2049729568,"armory","low","high","high","high","A"
"139",7,139,"racketeer","List2","acid",39,6,6,1,592,592,"unrelated","acidify","acid","ify",7,3,4,"transparent","vowel",21.8933,1.359708399,0,0,1359708399,"acidify","low","high","high","high","A"
"140",7,140,"musketeer","List2","front",40,6,6,1,531,531,"unrelated","frontier","front","ier",8,3,5,"transparent","vowel",263.077,2.421730578,13.0884,1.148861674,2.107939216,"frontier","low","low","high","high","A"
"141",7,141,"clothier","List2","humid",41,6,6,1,614,614,"unrelated","humidify","humid","ify",8,3,5,"transparent","vowel",3.03413,0.605749889,0.237971,0.092710471,6.533780661,"humidify","low","high","high","high","A"
"142",7,142,"cashier","List1","class",42,6,6,1,494,494,"unrelated","classify","class","ify",8,3,5,"transparent","vowel",203.287,2.310240731,1.6658,0.425827564,5.425296343,"classify","low","high","high","high","B"
"143",7,143,"solidify","List1","hotel",43,6,6,1,486,486,"unrelated","hotelier","hotel","ier",8,3,5,"transparent","vowel",125.589,2.102395969,0.178478,0.071321479,29.47773895,"hotelier","low","high","high","high","B"
"144",7,144,"fortify","List1","market",44,6,6,1,459,459,"unrelated","marketeer","market","eer",9,3,6,"transparent","vowel",132.55,2.125643892,0.178478,0.071321479,29.803698577,"marketeer","low","high","high","high","B"
"145",7,145,"profiteer","List1","just",45,6,6,1,463,463,"unrelated","justify","just","ify",7,3,4,"transparent","vowel",1236.44,3.09252415,16.42,1.241048151,2.49186475562312,"justify","low","high","high","high","B"
"146",7,146,"directory","List1","court",46,6,6,1,580,580,"unrelated","courtier","court","ier",8,3,5,"transparent","vowel",128.088,2.110885872,1.6063,0.416024404,5.073947217,"courtier","low","high","high","high","B"
"147",7,147,"armory","List1","null",47,6,6,1,640,640,"unrelated","nullify","null","ify",7,3,4,"transparent","vowel",0.356957,0.132566086,0.713913,0.233988773,0.566548915,"nullify","low","low","low","low","B"
"148",7,148,"acidify","List1","racket",48,6,6,1,620,620,"unrelated","racketeer","racket","eer",9,3,6,"transparent","vowel",11.7201,1.104490526,0.0594928,0.02509801,44.0070938689126,"racketeer","low","high","high","high","B"
"149",7,149,"frontier","List1","musket",49,6,6,1,530,530,"unrelated","musketeer","musket","eer",9,3,6,"transparent","vowel",0.65442,0.218645772,0,0,218645772,"musketeer","low","high","high","high","B"
"150",7,150,"humidify","List1","cloth",50,6,6,1,558,558,"unrelated","clothier","cloth","ier",8,3,5,"transparent","vowel",47.2967,1.683917457,0,0,1683917457,"clothier","low","high","high","high","B"
"151",7,151,"imply","List2","wit",51,6,6,1,564,564,"unrelated","witness","wit","ness",7,4,3,"opaque","consonant",11.0062,1.079405574,23.7376,1.393357563,0.774679524,"witness","high","low","low","low","A"
"152",7,152,"witness","List1","imp",52,6,5,0,871,NA,"unrelated","imply","imp","ly",5,2,3,"opaque","consonant",1.01138,0.303494127,12.1365,1.11847967,0.271345233059672,"imply","high","low","low","low","B"
"153",7,153,"flower","List2","list",53,6,6,1,654,654,"unrelated","listen","list","en",6,2,4,"opaque","vowel",74.6634,1.878885853,75.4368,1.883302497,0.99765484,"listen","high","low","low","low","A"
"154",7,154,"traitor","List2","past",54,6,6,1,488,488,"unrelated","pastor","past","or",6,2,4,"opaque","vowel",273.786,2.438994602,3.62906,0.66549281,3.66494507782143,"pastor","high","high","high","high","A"
"155",7,155,"limber","List2","ban",55,6,5,0,714,NA,"unrelated","banish","ban","ish",6,3,3,"opaque","vowel",13.6833,1.166823672,2.14174,0.497170241,2.346929831,"banish","high","low","high","high","A"
"156",7,156,"hunger","List2","heath",56,6,6,1,432,432,"unrelated","heathen","heath","en",7,2,5,"opaque","vowel",13.6238,1.165060239,2.55819,0.551229135,2.113567957,"heathen","high","low","high","high","A"
"157",7,157,"pollen","List2","mist",57,6,6,1,522,522,"unrelated","mister","mist","er",6,2,4,"opaque","vowel",13.8023,1.170329202,7.02015,0.904182491,1.294350656,"mister","high","low","high","low","A"
"158",7,158,"vanish","List2","rapt",58,6,6,1,606,606,"unrelated","raptor","rapt","or",6,2,4,"opaque","vowel",2.14174,0.497170241,0,0,497170241,"raptor","high","high","high","high","A"
"159",7,159,"listen","List1","flow",59,6,5,0,498,NA,"unrelated","flower","flow","er",6,2,4,"opaque","vowel",41.9424,1.632886313,27.9616,1.461822551,1.11702088,"flower","high","low","high","low","B"
"160",7,160,"pastor","List1","trait",60,6,6,1,620,620,"unrelated","traitor","trait","or",7,2,5,"opaque","vowel",3.2721,0.63064141,6.18725,0.856562752,0.736246594649674,"traitor","high","low","low","low","B"
"161",7,161,"banish","List1","limb",61,6,6,1,609,609,"unrelated","limber","limb","er",6,2,4,"opaque","vowel",7.91254,0.950001492,0.773406,0.248808173,3.818208529,"limber","high","high","high","high","B"
"162",7,162,"heathen","List1","hung",62,6,6,1,511,511,"unrelated","hunger","hung","er",6,2,4,"opaque","vowel",58.6004,1.775249174,25.2249,1.418713841,1.251308841,"hunger","high","low","high","low","B"
"163",7,163,"mister","List1","poll",63,6,6,1,575,575,"unrelated","pollen","poll","en",6,2,4,"opaque","vowel",8.38848,0.972595285,5.88978,0.838205355,1.160330554,"pollen","high","low","high","low","B"
"164",7,164,"raptor","List1","van",64,6,6,1,478,478,"unrelated","vanish","van","ish",6,3,3,"opaque","vowel",56.3396,1.758454659,6.18725,0.856562752,2.052919827,"vanish","high","low","high","high","B"
"165",7,165,"weakness","List2","help",65,6,6,1,671,671,"unrelated","helpless","help","less",8,4,4,"transparent","consonant",375.221,2.575443033,19.3351,1.308246312,1.968622428,"helpless","high","low","high","high","A"
"166",7,166,"greatly","List2","chief",66,6,6,1,629,629,"unrelated","chiefly","chief","ly",7,2,5,"transparent","consonant",105.54,2.027512692,11.3036,1.090032203,1.860048432,"chiefly","high","low","high","high","A"
"167",7,167,"illness","List2","strong",67,6,6,1,487,487,"unrelated","strongly","strong","ly",8,2,6,"transparent","consonant",167.948,2.227753055,42.3588,1.637077254,1.360811195,"strongly","high","low","high","low","A"
"168",7,168,"calmness","List2","deaf",68,6,6,1,768,768,"unrelated","deafness","deaf","ness",8,4,4,"transparent","consonant",9.51884,1.021967849,2.08225,0.488867861,2.090478693,"deafness","high","low","high","high","A"
"169",7,169,"deathlike","List2","dead",69,6,6,1,446,446,"unrelated","deadly","dead","ly",6,2,4,"transparent","consonant",190.079,2.28121296,13.6833,1.166823672,1.95506228814746,"deadly","high","low","high","high","A"
"170",7,170,"waiflike","List2","sick",70,6,6,1,511,511,"unrelated","sickness","sick","ness",8,4,4,"transparent","consonant",70.6179,1.855021582,16.4795,1.242529006,1.492940263,"sickness","high","low","high","low","A"
"171",7,171,"highly","List2","worth",71,6,NA,0,NA,NA,"unrelated","worthless","worth","less",9,4,5,"transparent","consonant",99.1149,2.000498718,5.17587,0.790698146,2.530040984,"worthless","high","high","high","high","A"
"172",7,172,"stainless","List2","thank",72,6,6,1,601,601,"unrelated","thankless","thank","less",9,4,5,"transparent","consonant",69.4875,1.848112108,0.65442,0.218645772,8.452539844,"thankless","high","high","high","high","A"
"173",7,173,"warlike","List2","tooth",73,6,6,1,505,505,"unrelated","toothless","tooth","less",9,NA,5,"transparent","consonant",13.5643,1.163289616,1.84428,0.453972347,2.562468003,"toothless","high","high","high","high","A"
"174",7,174,"helpless","List1","weak",74,6,6,1,561,561,"unrelated","weakness","weak","ness",8,4,4,"transparent","consonant",47.9512,1.689763343,21.8338,1.358578193,1.243773344,"weakness","high","low","high","low","B"
"175",7,175,"chiefly","List1","great",75,6,6,1,369,369,"unrelated","greatly","great","ly",7,2,5,"transparent","consonant",639.726,2.806672348,40.3361,1.616329499,1.736448136,"greatly","high","low","high","high","B"
"176",7,176,"strongly","List1","ill",76,6,6,1,576,576,"unrelated","illness","ill","ness",7,4,3,"transparent","consonant",56.5181,1.759804532,35.3982,1.561079907,1.127299457,"illness","high","low","high","low","B"
"177",7,177,"deafness","List1","calm",77,6,6,1,517,517,"unrelated","calmness","calm","ness",8,4,4,"transparent","consonant",41.288,1.626217146,1.01138,0.303494127,5.358315025,"calmness","high","high","high","high","B"
"178",7,178,"deadly","List1","death",78,6,6,1,388,388,"unrelated","deathlike","death","like",9,4,5,"transparent","consonant",233.152,2.369497872,0,0,2369497872,"deathlike","high","high","high","high","B"
"179",7,179,"sickness","List1","waif",79,6,5,0,634,NA,"unrelated","waiflike","waif","like",8,4,4,"transparent","consonant",0.773406,0.248808173,0,0,248808173,"waiflike","high","high","high","high","B"
"180",7,180,"worthless","List1","high",80,6,6,1,626,626,"unrelated","highly","high","ly",6,2,4,"transparent","consonant",369.866,2.56921702,93.8796,1.977172845,1.2994397658241,"highly","high","low","high","low","B"
"181",7,181,"thankless","List1","stain",81,6,6,1,495,495,"unrelated","stainless","stain","less",9,4,5,"transparent","consonant",7.3771,0.9230937,2.37971,0.528879437,1.7453764197957,"stainless","high","low","high","high","B"
"182",7,182,"toothless","List1","war",82,6,6,1,419,419,"unrelated","warlike","war","like",7,4,3,"transparent","consonant",340.12,2.532907183,1.6063,0.416024404,6.088362011,"warlike","high","high","high","high","B"
"183",7,183,"drawer","List2","tract",83,6,5,0,580,NA,"unrelated","tractor","tract","or",7,2,5,"transparent","vowel",3.45058,0.648416612,7.25812,0.916881189,0.707198074,"tractor","high","low","low","low","A"
"184",7,184,"greenish","List2","sculpt",84,6,6,1,611,611,"unrelated","sculptor","sculpt","or",8,2,6,"transparent","vowel",0,0,3.62906,0.66549281,0,"sculptor","high","low","low","low","A"
"185",7,185,"bookish","List2","self",85,6,6,1,518,518,"unrelated","selfish","self","ish",7,3,4,"transparent","vowel",38.9083,1.601063228,12.196,1.120442307,1.428956419,"selfish","high","low","high","low","A"
"186",7,186,"drunken","List2","fresh",86,6,6,1,594,594,"unrelated","freshen","fresh","en",7,2,5,"transparent","vowel",73.8305,1.874078647,0.475942,0.169069291,11.084677914,"freshen","high","high","high","high","A"
"187",7,187,"foolish","List2","debt",87,6,6,1,596,596,"unrelated","debtor","debt","or",6,2,4,"transparent","vowel",26.1768,1.434198318,0.951884,0.290454004,4.937781175,"debtor","high","high","high","high","A"
"188",7,188,"freakish","List2","pray",88,6,6,1,500,500,"unrelated","prayer","pray","er",6,2,4,"transparent","vowel",15.1707,1.20872882,20.5845,1.334141993,0.90599713181654,"prayer","high","low","low","low","A"
"189",7,189,"flaxen","List2","profess",89,6,6,1,441,441,"unrelated","professor","profess","or",9,2,7,"transparent","vowel",0.951884,0.290454004,74.9609,1.880590102,0.154448332,"professor","high","low","low","low","A"
"190",7,190,"hunter","List2","soft",90,6,6,1,498,498,"unrelated","soften","soft","en",6,2,4,"transparent","vowel",81.0886,1.914282849,4.04551,0.702905071,2.723387446,"soften","high","high","high","high","A"
"191",7,191,"sailor","List2","fast",91,6,6,1,509,509,"unrelated","fasten","fast","en",6,2,4,"transparent","vowel",102.982,2.016958166,2.85565,0.586097604,3.441334939,"fasten","high","high","high","high","A"
"192",7,192,"tractor","List1","draw",92,6,6,1,431,431,"unrelated","drawer","draw","er",6,2,4,"transparent","vowel",58.7194,1.776115436,16.0036,1.23054088,1.44336158466888,"drawer","high","low","high","low","B"
"193",7,193,"sculptor","List1","green",93,6,6,1,523,523,"unrelated","greenish","green","ish",8,3,5,"transparent","vowel",154.027,2.190407343,2.73667,0.572484745,3.826140973,"greenish","high","high","high","high","B"
"194",7,194,"selfish","List1","book",94,6,6,1,676,676,"unrelated","bookish","book","ish",7,3,4,"transparent","vowel",252.249,2.403547739,1.6063,0.416024404,5.777420051,"bookish","high","high","high","high","B"
"195",7,195,"freshen","List1","drunk",95,6,6,1,448,448,"unrelated","drunken","drunk","en",7,2,5,"transparent","vowel",38.4918,1.596506929,8.21,0.96425963,1.65568160034276,"drunken","high","low","high","high","B"
"196",7,196,"debtor","List1","fool",96,6,6,1,542,542,"unrelated","foolish","fool","ish",7,3,4,"transparent","vowel",37.4804,1.585239578,20.525,1.33294316,1.18927770094167,"foolish","high","low","high","low","B"
"197",7,197,"prayer","List1","freak",97,6,6,1,491,491,"unrelated","freakish","freak","ish",8,3,5,"transparent","vowel",5.35435,0.803071132,0.713913,0.233988773,3.432092567,"freakish","high","high","high","high","B"
"198",7,198,"professor","List1","flax",98,6,6,1,492,492,"unrelated","flaxen","flax","en",6,2,4,"transparent","vowel",2.20123,0.505316878,0.118986,0.048824653,10.349625376,"flaxen","high","high","high","high","B"
"199",7,199,"soften","List1","hunt",99,6,6,1,652,652,"unrelated","hunter","hunt","er",6,2,4,"transparent","vowel",22.9642,1.379562935,11.8391,1.108534581,1.244492465,"hunter","high","low","high","low","B"
"200",7,200,"fasten","List1","sail",100,6,6,1,640,640,"unrelated","sailor","sail","or",6,2,4,"transparent","vowel",8.21,0.96425963,5.88978,0.838205355,1.15038590853385,"sailor","high","low","high","low","B"
"201",8,1,"breadth","List1","bread",1,6,6,1,618,618,"related","breadth","bread","th",7,2,5,"opaque","consonant",76.9836,1.89200328,4.40246,0.73259156,2.58261681,"breadth","low","high","high","high","A"
"202",8,2,"hearth","List1","hear",2,6,6,1,645,645,"related","hearth","hear","th",6,2,4,"opaque","consonant",183.476,2.265939873,4.64044,0.751312984,3.01597326,"hearth","low","high","high","high","A"
"203",8,3,"youth","List1","you",3,6,6,1,531,531,"related","youth","you","th",5,2,3,"opaque","consonant",6334.67,3.801792548,63.4788,1.809416946,2.101114701,"youth","low","low","high","high","A"
"204",8,4,"kindling","List2","kind",4,6,6,1,406,406,"related","kindling","kind","ling",8,4,4,"opaque","consonant",409.846,2.613679063,0.951884,0.290454004,8.998598807,"kindling","low","high","high","high","B"
"205",8,5,"dumpling","List2","dump",5,6,6,1,835,835,"related","dumpling","dump","ling",8,4,4,"opaque","consonant",7.67457,0.938247956,0.356957,0.132566086,7.077586563,"dumpling","low","high","high","high","B"
"206",8,6,"random","List2","ran",6,6,6,1,483,483,"related","random","ran","dom",6,3,3,"opaque","consonant",116.606,2.070429479,18.2643,1.284753233,1.61153864,"random","low","low","high","high","B"
"207",8,7,"dearth","List2","dear",7,6,6,1,545,545,"related","dearth","dear","th",6,2,4,"opaque","consonant",119.58,2.08127528,0.951884,0.290454004,7.16559332690214,"dearth","low","high","high","high","B"
"208",8,8,"career","List1","car",8,6,6,1,694,694,"related","career","car","eer",6,3,3,"opaque","vowel",274.916,2.440776885,57.1725,1.764717728,1.383097617,"career","low","low","high","low","A"
"209",8,9,"ratify","List1","rat",9,6,6,1,584,584,"related","ratify","rat","ify",6,3,3,"opaque","vowel",8.68594,0.986141774,0.713913,0.233988773,4.214483273,"ratify","low","high","high","high","A"
"210",8,10,"factory","List1","fact",10,6,6,1,900,900,"related","factory","fact","ory",7,3,4,"opaque","vowel",448.635,2.65286011,39.2652,1.604929861,1.65294457584216,"factory","low","low","high","high","A"
"211",8,11,"pillory","List1","pill",11,6,6,1,720,720,"related","pillory","pill","ory",7,3,4,"opaque","vowel",13.8023,1.170329202,0.416449,0.151200942,7.740224226,"pillory","low","high","high","high","A"
"212",8,12,"hickory","List2","hick",12,6,6,1,448,448,"related","hickory","hick","ory",7,3,4,"opaque","vowel",1.24935,0.352057037,1.13036,0.328452999,1.071864276,"hickory","low","low","high","low","B"
"213",8,13,"auditory","List2","audit",13,6,6,1,647,647,"related","auditory","audit","ory",8,3,5,"opaque","vowel",1.6063,0.416024404,0.356957,0.132566086,3.138241562,"auditory","low","high","high","high","B"
"214",8,14,"testify","List2","test",14,6,6,1,481,481,"related","testify","test","ify",7,3,4,"opaque","vowel",79.4228,1.905379189,5.23536,0.794861533,2.397120891,"testify","low","high","high","high","B"
"215",8,15,"seedling","List1","seed",15,6,6,1,467,467,"related","seedling","seed","ling",8,4,4,"transparent","consonant",28.616,1.471526401,0.594928,0.202741082,7.258155965,"seedling","low","high","high","high","A"
"216",8,16,"warmth","List1","warm",16,6,6,1,492,492,"related","warmth","warm","th",6,2,4,"transparent","consonant",94.177,1.978532012,24.987,1.414756146,1.398496848,"warmth","low","low","high","low","A"
"217",8,17,"fourth","List1","four",17,6,6,1,638,638,"related","fourth","four","th",6,2,4,"transparent","consonant",319.714,2.506117918,45.274,1.665337042,1.504871298,"fourth","low","low","high","high","A"
"218",8,18,"boyhood","List1","boy",18,6,6,1,445,445,"related","boyhood","boy","hood",7,4,3,"transparent","consonant",223.871,2.351933451,4.52145,0.742053144,3.16949462,"boyhood","low","high","high","high","A"
"219",8,19,"eleventh","List1","eleven",19,6,6,1,574,574,"related","eleventh","eleven","th",8,2,6,"transparent","consonant",40.0386,1.613192537,4.69993,0.755869522,2.134220904,"eleventh","low","low","high","high","A"
"220",8,20,"sixth","List1","six",20,6,6,1,494,494,"related","sixth","six","th",5,2,3,"transparent","consonant",203.227,2.310113158,16.063,1.232055391,1.875007547,"sixth","low","low","high","high","A"
"221",8,21,"duckling","List1","duck",21,6,6,1,465,465,"related","duckling","duck","ling",8,4,4,"transparent","consonant",9.8758,1.036461213,0.297464,0.113095317,9.164492672,"duckling","low","high","high","high","A"
"222",8,22,"stardom","List1","star",22,6,6,1,439,439,"related","stardom","star","dom",7,3,4,"transparent","consonant",54.6738,1.745650865,1.13036,0.328452999,5.314766085,"stardom","low","high","high","high","A"
"223",8,23,"manhood","List1","man",23,6,6,1,505,505,"related","manhood","man","hood",7,4,3,"transparent","consonant",1024.11,3.01077047,6.06826,0.849312516,3.5449500740138,"manhood","low","high","high","high","A"
"224",8,24,"boredom","List2","bore",24,6,6,1,628,628,"related","boredom","bore","dom",7,3,4,"transparent","consonant",28.497,1.469777848,15.2301,1.210321196,1.214370079,"boredom","low","low","high","low","B"
"225",8,25,"tenth","List2","ten",25,6,6,1,470,470,"related","tenth","ten","th",5,2,3,"transparent","consonant",219.647,2.343698027,10.5302,1.061836841,2.207211065,"tenth","low","low","high","high","B"
"226",8,26,"freedom","List2","free",26,6,6,1,499,499,"related","freedom","free","dom",7,3,4,"transparent","consonant",209.652,2.323565587,101.673,2.011456252,1.155165857,"freedom","low","low","high","low","B"
"227",8,27,"kingdom","List2","king",27,6,6,1,741,741,"related","kingdom","king","dom",7,3,4,"transparent","consonant",91.7378,1.967256789,28.973,1.476730214,1.332170744,"kingdom","low","low","high","low","B"
"228",8,28,"sapling","List2","sap",28,6,6,1,587,587,"related","sapling","sap","ling",7,4,3,"transparent","consonant",2.79616,0.579344509,0.713913,0.233988773,2.475950017,"sapling","low","high","high","high","B"
"229",8,29,"earthling","List2","earth",29,6,6,1,474,474,"related","earthling","earth","ling",9,4,5,"transparent","consonant",161.999,2.21218494,0.237971,0.092710471,23.861219690479,"earthling","low","high","high","high","B"
"230",8,30,"growth","List2","grow",30,6,6,1,501,501,"related","growth","grow","th",6,2,4,"transparent","consonant",95.4264,1.984195953,121.841,2.089343343,0.949674432,"growth","low","low","low","low","B"
"231",8,31,"serfdom","List2","serf",31,6,6,1,605,605,"related","serfdom","serf","dom",7,3,4,"transparent","consonant",0.356957,0.132566086,0.237971,0.092710471,1.429893335,"serfdom","low","low","high","low","B"
"232",8,32,"health","List2","heal",32,6,6,1,598,598,"related","health","heal","th",6,2,4,"transparent","consonant",4.75942,0.76037875,130.587,2.119212986,0.35880242083473,"health","low","low","low","low","B"
"233",8,33,"cashier","List1","cash",33,6,6,1,631,631,"related","cashier","cash","ier",7,3,4,"transparent","vowel",54.3169,1.742857834,2.20123,0.505316878,3.449039418,"cashier","low","high","high","high","A"
"234",8,34,"solidify","List1","solid",34,6,6,1,484,484,"related","solidify","solid","ify",8,3,5,"transparent","vowel",46.5233,1.67690659,0.475942,0.169069291,9.91845751622358,"solidify","low","high","high","high","A"
"235",8,35,"fortify","List1","fort",35,6,6,1,856,856,"related","fortify","fort","ify",7,3,4,"transparent","vowel",23.7971,1.394400893,1.18986,0.340416351,4.09616308,"fortify","low","high","high","high","A"
"236",8,36,"profiteer","List1","profit",36,6,6,1,607,607,"related","profiteer","profit","eer",9,3,6,"transparent","vowel",36.945,1.579154557,0.118986,0.048824653,32.343384492,"profiteer","low","high","high","high","A"
"237",8,37,"directory","List1","direct",37,6,6,1,652,652,"related","directory","direct","ory",9,3,6,"transparent","vowel",94.2365,1.978803426,3.98601,0.697753145,2.835964893,"directory","low","high","high","high","A"
"238",8,38,"armory","List1","arm",38,6,6,1,616,616,"related","armory","arm","ory",6,3,3,"transparent","vowel",111.132,2.049729568,0,0,2049729568,"armory","low","high","high","high","A"
"239",8,39,"acidify","List1","acid",39,6,6,1,642,642,"related","acidify","acid","ify",7,3,4,"transparent","vowel",21.8933,1.359708399,0,0,1359708399,"acidify","low","high","high","high","A"
"240",8,40,"frontier","List1","front",40,6,6,1,667,667,"related","frontier","front","ier",8,3,5,"transparent","vowel",263.077,2.421730578,13.0884,1.148861674,2.107939216,"frontier","low","low","high","high","A"
"241",8,41,"humidify","List1","humid",41,6,6,1,607,607,"related","humidify","humid","ify",8,3,5,"transparent","vowel",3.03413,0.605749889,0.237971,0.092710471,6.533780661,"humidify","low","high","high","high","A"
"242",8,42,"classify","List2","class",42,6,6,1,663,663,"related","classify","class","ify",8,3,5,"transparent","vowel",203.287,2.310240731,1.6658,0.425827564,5.425296343,"classify","low","high","high","high","B"
"243",8,43,"hotelier","List2","hotel",43,6,6,1,733,733,"related","hotelier","hotel","ier",8,3,5,"transparent","vowel",125.589,2.102395969,0.178478,0.071321479,29.47773895,"hotelier","low","high","high","high","B"
"244",8,44,"marketeer","List2","market",44,6,6,1,511,511,"related","marketeer","market","eer",9,3,6,"transparent","vowel",132.55,2.125643892,0.178478,0.071321479,29.803698577,"marketeer","low","high","high","high","B"
"245",8,45,"justify","List2","just",45,6,6,1,462,462,"related","justify","just","ify",7,3,4,"transparent","vowel",1236.44,3.09252415,16.42,1.241048151,2.49186475562312,"justify","low","high","high","high","B"
"246",8,46,"courtier","List2","court",46,6,6,1,481,481,"related","courtier","court","ier",8,3,5,"transparent","vowel",128.088,2.110885872,1.6063,0.416024404,5.073947217,"courtier","low","high","high","high","B"
"247",8,47,"nullify","List2","null",47,6,6,1,834,834,"related","nullify","null","ify",7,3,4,"transparent","vowel",0.356957,0.132566086,0.713913,0.233988773,0.566548915,"nullify","low","low","low","low","B"
"248",8,48,"racketeer","List2","racket",48,6,6,1,484,484,"related","racketeer","racket","eer",9,3,6,"transparent","vowel",11.7201,1.104490526,0.0594928,0.02509801,44.0070938689126,"racketeer","low","high","high","high","B"
"249",8,49,"musketeer","List2","musket",49,6,6,1,577,577,"related","musketeer","musket","eer",9,3,6,"transparent","vowel",0.65442,0.218645772,0,0,218645772,"musketeer","low","high","high","high","B"
"250",8,50,"clothier","List2","cloth",50,6,6,1,696,696,"related","clothier","cloth","ier",8,3,5,"transparent","vowel",47.2967,1.683917457,0,0,1683917457,"clothier","low","high","high","high","B"
"251",8,51,"witness","List1","wit",51,6,6,1,729,729,"related","witness","wit","ness",7,4,3,"opaque","consonant",11.0062,1.079405574,23.7376,1.393357563,0.774679524,"witness","high","low","low","low","A"
"252",8,52,"imply","List2","imp",52,6,6,1,669,669,"related","imply","imp","ly",5,2,3,"opaque","consonant",1.01138,0.303494127,12.1365,1.11847967,0.271345233059672,"imply","high","low","low","low","B"
"253",8,53,"listen","List1","list",53,6,6,1,516,516,"related","listen","list","en",6,2,4,"opaque","vowel",74.6634,1.878885853,75.4368,1.883302497,0.99765484,"listen","high","low","low","low","A"
"254",8,54,"pastor","List1","past",54,6,5,0,720,NA,"related","pastor","past","or",6,2,4,"opaque","vowel",273.786,2.438994602,3.62906,0.66549281,3.66494507782143,"pastor","high","high","high","high","A"
"255",8,55,"banish","List1","ban",55,6,6,1,634,634,"related","banish","ban","ish",6,3,3,"opaque","vowel",13.6833,1.166823672,2.14174,0.497170241,2.346929831,"banish","high","low","high","high","A"
"256",8,56,"heathen","List1","heath",56,6,6,1,1044,1044,"related","heathen","heath","en",7,2,5,"opaque","vowel",13.6238,1.165060239,2.55819,0.551229135,2.113567957,"heathen","high","low","high","high","A"
"257",8,57,"mister","List1","mist",57,6,6,1,655,655,"related","mister","mist","er",6,2,4,"opaque","vowel",13.8023,1.170329202,7.02015,0.904182491,1.294350656,"mister","high","low","high","low","A"
"258",8,58,"raptor","List1","rapt",58,6,6,1,930,930,"related","raptor","rapt","or",6,2,4,"opaque","vowel",2.14174,0.497170241,0,0,497170241,"raptor","high","high","high","high","A"
"259",8,59,"flower","List2","flow",59,6,6,1,611,611,"related","flower","flow","er",6,2,4,"opaque","vowel",41.9424,1.632886313,27.9616,1.461822551,1.11702088,"flower","high","low","high","low","B"
"260",8,60,"traitor","List2","trait",60,6,6,1,589,589,"related","traitor","trait","or",7,2,5,"opaque","vowel",3.2721,0.63064141,6.18725,0.856562752,0.736246594649674,"traitor","high","low","low","low","B"
"261",8,61,"limber","List2","limb",61,6,6,1,556,556,"related","limber","limb","er",6,2,4,"opaque","vowel",7.91254,0.950001492,0.773406,0.248808173,3.818208529,"limber","high","high","high","high","B"
"262",8,62,"hunger","List2","hung",62,6,6,1,606,606,"related","hunger","hung","er",6,2,4,"opaque","vowel",58.6004,1.775249174,25.2249,1.418713841,1.251308841,"hunger","high","low","high","low","B"
"263",8,63,"pollen","List2","poll",63,6,5,0,889,NA,"related","pollen","poll","en",6,2,4,"opaque","vowel",8.38848,0.972595285,5.88978,0.838205355,1.160330554,"pollen","high","low","high","low","B"
"264",8,64,"vanish","List2","van",64,6,6,1,589,589,"related","vanish","van","ish",6,3,3,"opaque","vowel",56.3396,1.758454659,6.18725,0.856562752,2.052919827,"vanish","high","low","high","high","B"
"265",8,65,"helpless","List1","help",65,6,6,1,497,497,"related","helpless","help","less",8,4,4,"transparent","consonant",375.221,2.575443033,19.3351,1.308246312,1.968622428,"helpless","high","low","high","high","A"
"266",8,66,"chiefly","List1","chief",66,6,6,1,562,562,"related","chiefly","chief","ly",7,2,5,"transparent","consonant",105.54,2.027512692,11.3036,1.090032203,1.860048432,"chiefly","high","low","high","high","A"
"267",8,67,"strongly","List1","strong",67,6,6,1,543,543,"related","strongly","strong","ly",8,2,6,"transparent","consonant",167.948,2.227753055,42.3588,1.637077254,1.360811195,"strongly","high","low","high","low","A"
"268",8,68,"deafness","List1","deaf",68,6,6,1,407,407,"related","deafness","deaf","ness",8,4,4,"transparent","consonant",9.51884,1.021967849,2.08225,0.488867861,2.090478693,"deafness","high","low","high","high","A"
"269",8,69,"deadly","List1","dead",69,6,6,1,497,497,"related","deadly","dead","ly",6,2,4,"transparent","consonant",190.079,2.28121296,13.6833,1.166823672,1.95506228814746,"deadly","high","low","high","high","A"
"270",8,70,"sickness","List1","sick",70,6,6,1,671,671,"related","sickness","sick","ness",8,4,4,"transparent","consonant",70.6179,1.855021582,16.4795,1.242529006,1.492940263,"sickness","high","low","high","low","A"
"271",8,71,"worthless","List1","worth",71,6,6,1,477,477,"related","worthless","worth","less",9,4,5,"transparent","consonant",99.1149,2.000498718,5.17587,0.790698146,2.530040984,"worthless","high","high","high","high","A"
"272",8,72,"thankless","List1","thank",72,6,6,1,791,791,"related","thankless","thank","less",9,4,5,"transparent","consonant",69.4875,1.848112108,0.65442,0.218645772,8.452539844,"thankless","high","high","high","high","A"
"273",8,73,"toothless","List1","tooth",73,6,6,1,610,610,"related","toothless","tooth","less",9,NA,5,"transparent","consonant",13.5643,1.163289616,1.84428,0.453972347,2.562468003,"toothless","high","high","high","high","A"
"274",8,74,"weakness","List2","weak",74,6,6,1,663,663,"related","weakness","weak","ness",8,4,4,"transparent","consonant",47.9512,1.689763343,21.8338,1.358578193,1.243773344,"weakness","high","low","high","low","B"
"275",8,75,"greatly","List2","great",75,6,6,1,475,475,"related","greatly","great","ly",7,2,5,"transparent","consonant",639.726,2.806672348,40.3361,1.616329499,1.736448136,"greatly","high","low","high","high","B"
"276",8,76,"illness","List2","ill",76,6,6,1,464,464,"related","illness","ill","ness",7,4,3,"transparent","consonant",56.5181,1.759804532,35.3982,1.561079907,1.127299457,"illness","high","low","high","low","B"
"277",8,77,"calmness","List2","calm",77,6,6,1,382,382,"related","calmness","calm","ness",8,4,4,"transparent","consonant",41.288,1.626217146,1.01138,0.303494127,5.358315025,"calmness","high","high","high","high","B"
"278",8,78,"deathlike","List2","death",78,6,6,1,466,466,"related","deathlike","death","like",9,4,5,"transparent","consonant",233.152,2.369497872,0,0,2369497872,"deathlike","high","high","high","high","B"
"279",8,79,"waiflike","List2","waif",79,6,5,0,505,NA,"related","waiflike","waif","like",8,4,4,"transparent","consonant",0.773406,0.248808173,0,0,248808173,"waiflike","high","high","high","high","B"
"280",8,80,"highly","List2","high",80,6,6,1,381,381,"related","highly","high","ly",6,2,4,"transparent","consonant",369.866,2.56921702,93.8796,1.977172845,1.2994397658241,"highly","high","low","high","low","B"
"281",8,81,"stainless","List2","stain",81,6,6,1,520,520,"related","stainless","stain","less",9,4,5,"transparent","consonant",7.3771,0.9230937,2.37971,0.528879437,1.7453764197957,"stainless","high","low","high","high","B"
"282",8,82,"warlike","List2","war",82,6,6,1,390,390,"related","warlike","war","like",7,4,3,"transparent","consonant",340.12,2.532907183,1.6063,0.416024404,6.088362011,"warlike","high","high","high","high","B"
"283",8,83,"tractor","List1","tract",83,6,5,0,586,NA,"related","tractor","tract","or",7,2,5,"transparent","vowel",3.45058,0.648416612,7.25812,0.916881189,0.707198074,"tractor","high","low","low","low","A"
"284",8,84,"sculptor","List1","sculpt",84,6,6,1,689,689,"related","sculptor","sculpt","or",8,2,6,"transparent","vowel",0,0,3.62906,0.66549281,0,"sculptor","high","low","low","low","A"
"285",8,85,"selfish","List1","self",85,6,6,1,557,557,"related","selfish","self","ish",7,3,4,"transparent","vowel",38.9083,1.601063228,12.196,1.120442307,1.428956419,"selfish","high","low","high","low","A"
"286",8,86,"freshen","List1","fresh",86,6,6,1,477,477,"related","freshen","fresh","en",7,2,5,"transparent","vowel",73.8305,1.874078647,0.475942,0.169069291,11.084677914,"freshen","high","high","high","high","A"
"287",8,87,"debtor","List1","debt",87,6,6,1,653,653,"related","debtor","debt","or",6,2,4,"transparent","vowel",26.1768,1.434198318,0.951884,0.290454004,4.937781175,"debtor","high","high","high","high","A"
"288",8,88,"prayer","List1","pray",88,6,6,1,486,486,"related","prayer","pray","er",6,2,4,"transparent","vowel",15.1707,1.20872882,20.5845,1.334141993,0.90599713181654,"prayer","high","low","low","low","A"
"289",8,89,"professor","List1","profess",89,6,5,0,830,NA,"related","professor","profess","or",9,2,7,"transparent","vowel",0.951884,0.290454004,74.9609,1.880590102,0.154448332,"professor","high","low","low","low","A"
"290",8,90,"soften","List1","soft",90,6,6,1,577,577,"related","soften","soft","en",6,2,4,"transparent","vowel",81.0886,1.914282849,4.04551,0.702905071,2.723387446,"soften","high","high","high","high","A"
"291",8,91,"fasten","List1","fast",91,6,6,1,704,704,"related","fasten","fast","en",6,2,4,"transparent","vowel",102.982,2.016958166,2.85565,0.586097604,3.441334939,"fasten","high","high","high","high","A"
"292",8,92,"drawer","List2","draw",92,6,6,1,613,613,"related","drawer","draw","er",6,2,4,"transparent","vowel",58.7194,1.776115436,16.0036,1.23054088,1.44336158466888,"drawer","high","low","high","low","B"
"293",8,93,"greenish","List2","green",93,6,6,1,561,561,"related","greenish","green","ish",8,3,5,"transparent","vowel",154.027,2.190407343,2.73667,0.572484745,3.826140973,"greenish","high","high","high","high","B"
"294",8,94,"bookish","List2","book",94,6,6,1,404,404,"related","bookish","book","ish",7,3,4,"transparent","vowel",252.249,2.403547739,1.6063,0.416024404,5.777420051,"bookish","high","high","high","high","B"
"295",8,95,"drunken","List2","drunk",95,6,6,1,576,576,"related","drunken","drunk","en",7,2,5,"transparent","vowel",38.4918,1.596506929,8.21,0.96425963,1.65568160034276,"drunken","high","low","high","high","B"
"296",8,96,"foolish","List2","fool",96,6,6,1,488,488,"related","foolish","fool","ish",7,3,4,"transparent","vowel",37.4804,1.585239578,20.525,1.33294316,1.18927770094167,"foolish","high","low","high","low","B"
"297",8,97,"freakish","List2","freak",97,6,6,1,442,442,"related","freakish","freak","ish",8,3,5,"transparent","vowel",5.35435,0.803071132,0.713913,0.233988773,3.432092567,"freakish","high","high","high","high","B"
"298",8,98,"flaxen","List2","flax",98,6,6,1,483,483,"related","flaxen","flax","en",6,2,4,"transparent","vowel",2.20123,0.505316878,0.118986,0.048824653,10.349625376,"flaxen","high","high","high","high","B"
"299",8,99,"hunter","List2","hunt",99,6,6,1,596,596,"related","hunter","hunt","er",6,2,4,"transparent","vowel",22.9642,1.379562935,11.8391,1.108534581,1.244492465,"hunter","high","low","high","low","B"
"300",8,100,"sailor","List2","sail",100,6,6,1,576,576,"related","sailor","sail","or",6,2,4,"transparent","vowel",8.21,0.96425963,5.88978,0.838205355,1.15038590853385,"sailor","high","low","high","low","B"
"301",8,101,"kindling","List2","bread",1,6,6,1,490,490,"unrelated","breadth","bread","th",7,2,5,"opaque","consonant",76.9836,1.89200328,4.40246,0.73259156,2.58261681,"breadth","low","high","high","high","A"
"302",8,102,"dumpling","List2","hear",2,6,6,1,476,476,"unrelated","hearth","hear","th",6,2,4,"opaque","consonant",183.476,2.265939873,4.64044,0.751312984,3.01597326,"hearth","low","high","high","high","A"
"303",8,103,"random","List2","you",3,6,6,1,484,484,"unrelated","youth","you","th",5,2,3,"opaque","consonant",6334.67,3.801792548,63.4788,1.809416946,2.101114701,"youth","low","low","high","high","A"
"304",8,104,"breadth","List1","kind",4,6,6,1,523,523,"unrelated","kindling","kind","ling",8,4,4,"opaque","consonant",409.846,2.613679063,0.951884,0.290454004,8.998598807,"kindling","low","high","high","high","B"
"305",8,105,"hearth","List1","dump",5,6,6,1,594,594,"unrelated","dumpling","dump","ling",8,4,4,"opaque","consonant",7.67457,0.938247956,0.356957,0.132566086,7.077586563,"dumpling","low","high","high","high","B"
"306",8,106,"youth","List1","ran",6,6,6,1,597,597,"unrelated","random","ran","dom",6,3,3,"opaque","consonant",116.606,2.070429479,18.2643,1.284753233,1.61153864,"random","low","low","high","high","B"
"307",8,107,"pillory","List1","dear",7,6,6,1,504,504,"unrelated","dearth","dear","th",6,2,4,"opaque","consonant",119.58,2.08127528,0.951884,0.290454004,7.16559332690214,"dearth","low","high","high","high","B"
"308",8,108,"hickory","List2","car",8,6,6,1,593,593,"unrelated","career","car","eer",6,3,3,"opaque","vowel",274.916,2.440776885,57.1725,1.764717728,1.383097617,"career","low","low","high","low","A"
"309",8,109,"auditory","List2","rat",9,6,6,1,440,440,"unrelated","ratify","rat","ify",6,3,3,"opaque","vowel",8.68594,0.986141774,0.713913,0.233988773,4.214483273,"ratify","low","high","high","high","A"
"310",8,110,"testify","List2","fact",10,6,6,1,636,636,"unrelated","factory","fact","ory",7,3,4,"opaque","vowel",448.635,2.65286011,39.2652,1.604929861,1.65294457584216,"factory","low","low","high","high","A"
"311",8,111,"dearth","List2","pill",11,6,6,1,517,517,"unrelated","pillory","pill","ory",7,3,4,"opaque","vowel",13.8023,1.170329202,0.416449,0.151200942,7.740224226,"pillory","low","high","high","high","A"
"312",8,112,"career","List1","hick",12,6,6,1,887,887,"unrelated","hickory","hick","ory",7,3,4,"opaque","vowel",1.24935,0.352057037,1.13036,0.328452999,1.071864276,"hickory","low","low","high","low","B"
"313",8,113,"ratify","List1","audit",13,6,6,1,666,666,"unrelated","auditory","audit","ory",8,3,5,"opaque","vowel",1.6063,0.416024404,0.356957,0.132566086,3.138241562,"auditory","low","high","high","high","B"
"314",8,114,"factory","List1","test",14,6,6,1,605,605,"unrelated","testify","test","ify",7,3,4,"opaque","vowel",79.4228,1.905379189,5.23536,0.794861533,2.397120891,"testify","low","high","high","high","B"
"315",8,115,"boredom","List2","seed",15,6,6,1,478,478,"unrelated","seedling","seed","ling",8,4,4,"transparent","consonant",28.616,1.471526401,0.594928,0.202741082,7.258155965,"seedling","low","high","high","high","A"
"316",8,116,"tenth","List2","warm",16,6,6,1,465,465,"unrelated","warmth","warm","th",6,2,4,"transparent","consonant",94.177,1.978532012,24.987,1.414756146,1.398496848,"warmth","low","low","high","low","A"
"317",8,117,"freedom","List2","four",17,6,6,1,597,597,"unrelated","fourth","four","th",6,2,4,"transparent","consonant",319.714,2.506117918,45.274,1.665337042,1.504871298,"fourth","low","low","high","high","A"
"318",8,118,"kingdom","List2","boy",18,6,6,1,547,547,"unrelated","boyhood","boy","hood",7,4,3,"transparent","consonant",223.871,2.351933451,4.52145,0.742053144,3.16949462,"boyhood","low","high","high","high","A"
"319",8,119,"sapling","List2","eleven",19,6,6,1,491,491,"unrelated","eleventh","eleven","th",8,2,6,"transparent","consonant",40.0386,1.613192537,4.69993,0.755869522,2.134220904,"eleventh","low","low","high","high","A"
"320",8,120,"earthling","List2","six",20,6,6,1,527,527,"unrelated","sixth","six","th",5,2,3,"transparent","consonant",203.227,2.310113158,16.063,1.232055391,1.875007547,"sixth","low","low","high","high","A"
"321",8,121,"growth","List2","duck",21,6,6,1,623,623,"unrelated","duckling","duck","ling",8,4,4,"transparent","consonant",9.8758,1.036461213,0.297464,0.113095317,9.164492672,"duckling","low","high","high","high","A"
"322",8,122,"serfdom","List2","star",22,6,6,1,560,560,"unrelated","stardom","star","dom",7,3,4,"transparent","consonant",54.6738,1.745650865,1.13036,0.328452999,5.314766085,"stardom","low","high","high","high","A"
"323",8,123,"health","List2","man",23,6,6,1,391,391,"unrelated","manhood","man","hood",7,4,3,"transparent","consonant",1024.11,3.01077047,6.06826,0.849312516,3.5449500740138,"manhood","low","high","high","high","A"
"324",8,124,"seedling","List1","bore",24,6,6,1,501,501,"unrelated","boredom","bore","dom",7,3,4,"transparent","consonant",28.497,1.469777848,15.2301,1.210321196,1.214370079,"boredom","low","low","high","low","B"
"325",8,125,"warmth","List1","ten",25,6,6,1,555,555,"unrelated","tenth","ten","th",5,2,3,"transparent","consonant",219.647,2.343698027,10.5302,1.061836841,2.207211065,"tenth","low","low","high","high","B"
"326",8,126,"fourth","List1","free",26,6,6,1,687,687,"unrelated","freedom","free","dom",7,3,4,"transparent","consonant",209.652,2.323565587,101.673,2.011456252,1.155165857,"freedom","low","low","high","low","B"
"327",8,127,"boyhood","List1","king",27,6,6,1,688,688,"unrelated","kingdom","king","dom",7,3,4,"transparent","consonant",91.7378,1.967256789,28.973,1.476730214,1.332170744,"kingdom","low","low","high","low","B"
"328",8,128,"eleventh","List1","sap",28,6,6,1,916,916,"unrelated","sapling","sap","ling",7,4,3,"transparent","consonant",2.79616,0.579344509,0.713913,0.233988773,2.475950017,"sapling","low","high","high","high","B"
"329",8,129,"sixth","List1","earth",29,6,6,1,619,619,"unrelated","earthling","earth","ling",9,4,5,"transparent","consonant",161.999,2.21218494,0.237971,0.092710471,23.861219690479,"earthling","low","high","high","high","B"
"330",8,130,"duckling","List1","grow",30,6,6,1,522,522,"unrelated","growth","grow","th",6,2,4,"transparent","consonant",95.4264,1.984195953,121.841,2.089343343,0.949674432,"growth","low","low","low","low","B"
"331",8,131,"stardom","List1","serf",31,6,5,0,786,NA,"unrelated","serfdom","serf","dom",7,3,4,"transparent","consonant",0.356957,0.132566086,0.237971,0.092710471,1.429893335,"serfdom","low","low","high","low","B"
"332",8,132,"manhood","List1","heal",32,6,6,1,486,486,"unrelated","health","heal","th",6,2,4,"transparent","consonant",4.75942,0.76037875,130.587,2.119212986,0.35880242083473,"health","low","low","low","low","B"
"333",8,133,"classify","List2","cash",33,6,6,1,539,539,"unrelated","cashier","cash","ier",7,3,4,"transparent","vowel",54.3169,1.742857834,2.20123,0.505316878,3.449039418,"cashier","low","high","high","high","A"
"334",8,134,"hotelier","List2","solid",34,6,6,1,539,539,"unrelated","solidify","solid","ify",8,3,5,"transparent","vowel",46.5233,1.67690659,0.475942,0.169069291,9.91845751622358,"solidify","low","high","high","high","A"
"335",8,135,"marketeer","List2","fort",35,6,6,1,599,599,"unrelated","fortify","fort","ify",7,3,4,"transparent","vowel",23.7971,1.394400893,1.18986,0.340416351,4.09616308,"fortify","low","high","high","high","A"
"336",8,136,"justify","List2","profit",36,6,6,1,526,526,"unrelated","profiteer","profit","eer",9,3,6,"transparent","vowel",36.945,1.579154557,0.118986,0.048824653,32.343384492,"profiteer","low","high","high","high","A"
"337",8,137,"courtier","List2","direct",37,6,6,1,892,892,"unrelated","directory","direct","ory",9,3,6,"transparent","vowel",94.2365,1.978803426,3.98601,0.697753145,2.835964893,"directory","low","high","high","high","A"
"338",8,138,"nullify","List2","arm",38,6,6,1,569,569,"unrelated","armory","arm","ory",6,3,3,"transparent","vowel",111.132,2.049729568,0,0,2049729568,"armory","low","high","high","high","A"
"339",8,139,"racketeer","List2","acid",39,6,6,1,771,771,"unrelated","acidify","acid","ify",7,3,4,"transparent","vowel",21.8933,1.359708399,0,0,1359708399,"acidify","low","high","high","high","A"
"340",8,140,"musketeer","List2","front",40,6,6,1,455,455,"unrelated","frontier","front","ier",8,3,5,"transparent","vowel",263.077,2.421730578,13.0884,1.148861674,2.107939216,"frontier","low","low","high","high","A"
"341",8,141,"clothier","List2","humid",41,6,6,1,521,521,"unrelated","humidify","humid","ify",8,3,5,"transparent","vowel",3.03413,0.605749889,0.237971,0.092710471,6.533780661,"humidify","low","high","high","high","A"
"342",8,142,"cashier","List1","class",42,6,6,1,595,595,"unrelated","classify","class","ify",8,3,5,"transparent","vowel",203.287,2.310240731,1.6658,0.425827564,5.425296343,"classify","low","high","high","high","B"
"343",8,143,"solidify","List1","hotel",43,6,6,1,595,595,"unrelated","hotelier","hotel","ier",8,3,5,"transparent","vowel",125.589,2.102395969,0.178478,0.071321479,29.47773895,"hotelier","low","high","high","high","B"
"344",8,144,"fortify","List1","market",44,6,6,1,467,467,"unrelated","marketeer","market","eer",9,3,6,"transparent","vowel",132.55,2.125643892,0.178478,0.071321479,29.803698577,"marketeer","low","high","high","high","B"
"345",8,145,"profiteer","List1","just",45,6,6,1,572,572,"unrelated","justify","just","ify",7,3,4,"transparent","vowel",1236.44,3.09252415,16.42,1.241048151,2.49186475562312,"justify","low","high","high","high","B"
"346",8,146,"directory","List1","court",46,6,6,1,704,704,"unrelated","courtier","court","ier",8,3,5,"transparent","vowel",128.088,2.110885872,1.6063,0.416024404,5.073947217,"courtier","low","high","high","high","B"
"347",8,147,"armory","List1","null",47,6,5,0,885,NA,"unrelated","nullify","null","ify",7,3,4,"transparent","vowel",0.356957,0.132566086,0.713913,0.233988773,0.566548915,"nullify","low","low","low","low","B"
"348",8,148,"acidify","List1","racket",48,6,6,1,495,495,"unrelated","racketeer","racket","eer",9,3,6,"transparent","vowel",11.7201,1.104490526,0.0594928,0.02509801,44.0070938689126,"racketeer","low","high","high","high","B"
"349",8,149,"frontier","List1","musket",49,6,5,0,1044,NA,"unrelated","musketeer","musket","eer",9,3,6,"transparent","vowel",0.65442,0.218645772,0,0,218645772,"musketeer","low","high","high","high","B"
"350",8,150,"humidify","List1","cloth",50,6,6,1,626,626,"unrelated","clothier","cloth","ier",8,3,5,"transparent","vowel",47.2967,1.683917457,0,0,1683917457,"clothier","low","high","high","high","B"
"351",8,151,"imply","List2","wit",51,6,6,1,547,547,"unrelated","witness","wit","ness",7,4,3,"opaque","consonant",11.0062,1.079405574,23.7376,1.393357563,0.774679524,"witness","high","low","low","low","A"
"352",8,152,"witness","List1","imp",52,6,6,1,908,908,"unrelated","imply","imp","ly",5,2,3,"opaque","consonant",1.01138,0.303494127,12.1365,1.11847967,0.271345233059672,"imply","high","low","low","low","B"
"353",8,153,"flower","List2","list",53,6,6,1,565,565,"unrelated","listen","list","en",6,2,4,"opaque","vowel",74.6634,1.878885853,75.4368,1.883302497,0.99765484,"listen","high","low","low","low","A"
"354",8,154,"traitor","List2","past",54,6,6,1,487,487,"unrelated","pastor","past","or",6,2,4,"opaque","vowel",273.786,2.438994602,3.62906,0.66549281,3.66494507782143,"pastor","high","high","high","high","A"
"355",8,155,"limber","List2","ban",55,6,6,1,599,599,"unrelated","banish","ban","ish",6,3,3,"opaque","vowel",13.6833,1.166823672,2.14174,0.497170241,2.346929831,"banish","high","low","high","high","A"
"356",8,156,"hunger","List2","heath",56,6,6,1,490,490,"unrelated","heathen","heath","en",7,2,5,"opaque","vowel",13.6238,1.165060239,2.55819,0.551229135,2.113567957,"heathen","high","low","high","high","A"
"357",8,157,"pollen","List2","mist",57,6,6,1,556,556,"unrelated","mister","mist","er",6,2,4,"opaque","vowel",13.8023,1.170329202,7.02015,0.904182491,1.294350656,"mister","high","low","high","low","A"
"358",8,158,"vanish","List2","rapt",58,6,6,1,549,549,"unrelated","raptor","rapt","or",6,2,4,"opaque","vowel",2.14174,0.497170241,0,0,497170241,"raptor","high","high","high","high","A"
"359",8,159,"listen","List1","flow",59,6,6,1,626,626,"unrelated","flower","flow","er",6,2,4,"opaque","vowel",41.9424,1.632886313,27.9616,1.461822551,1.11702088,"flower","high","low","high","low","B"
"360",8,160,"pastor","List1","trait",60,6,6,1,668,668,"unrelated","traitor","trait","or",7,2,5,"opaque","vowel",3.2721,0.63064141,6.18725,0.856562752,0.736246594649674,"traitor","high","low","low","low","B"
"361",8,161,"banish","List1","limb",61,6,6,1,643,643,"unrelated","limber","limb","er",6,2,4,"opaque","vowel",7.91254,0.950001492,0.773406,0.248808173,3.818208529,"limber","high","high","high","high","B"
"362",8,162,"heathen","List1","hung",62,6,6,1,666,666,"unrelated","hunger","hung","er",6,2,4,"opaque","vowel",58.6004,1.775249174,25.2249,1.418713841,1.251308841,"hunger","high","low","high","low","B"
"363",8,163,"mister","List1","poll",63,6,6,1,1353,NA,"unrelated","pollen","poll","en",6,2,4,"opaque","vowel",8.38848,0.972595285,5.88978,0.838205355,1.160330554,"pollen","high","low","high","low","B"
"364",8,164,"raptor","List1","van",64,6,6,1,685,685,"unrelated","vanish","van","ish",6,3,3,"opaque","vowel",56.3396,1.758454659,6.18725,0.856562752,2.052919827,"vanish","high","low","high","high","B"
"365",8,165,"weakness","List2","help",65,6,6,1,434,434,"unrelated","helpless","help","less",8,4,4,"transparent","consonant",375.221,2.575443033,19.3351,1.308246312,1.968622428,"helpless","high","low","high","high","A"
"366",8,166,"greatly","List2","chief",66,6,6,1,526,526,"unrelated","chiefly","chief","ly",7,2,5,"transparent","consonant",105.54,2.027512692,11.3036,1.090032203,1.860048432,"chiefly","high","low","high","high","A"
"367",8,167,"illness","List2","strong",67,6,6,1,478,478,"unrelated","strongly","strong","ly",8,2,6,"transparent","consonant",167.948,2.227753055,42.3588,1.637077254,1.360811195,"strongly","high","low","high","low","A"
"368",8,168,"calmness","List2","deaf",68,6,6,1,563,563,"unrelated","deafness","deaf","ness",8,4,4,"transparent","consonant",9.51884,1.021967849,2.08225,0.488867861,2.090478693,"deafness","high","low","high","high","A"
"369",8,169,"deathlike","List2","dead",69,6,6,1,571,571,"unrelated","deadly","dead","ly",6,2,4,"transparent","consonant",190.079,2.28121296,13.6833,1.166823672,1.95506228814746,"deadly","high","low","high","high","A"
"370",8,170,"waiflike","List2","sick",70,6,6,1,699,699,"unrelated","sickness","sick","ness",8,4,4,"transparent","consonant",70.6179,1.855021582,16.4795,1.242529006,1.492940263,"sickness","high","low","high","low","A"
"371",8,171,"highly","List2","worth",71,6,6,1,479,479,"unrelated","worthless","worth","less",9,4,5,"transparent","consonant",99.1149,2.000498718,5.17587,0.790698146,2.530040984,"worthless","high","high","high","high","A"
"372",8,172,"stainless","List2","thank",72,6,6,1,529,529,"unrelated","thankless","thank","less",9,4,5,"transparent","consonant",69.4875,1.848112108,0.65442,0.218645772,8.452539844,"thankless","high","high","high","high","A"
"373",8,173,"warlike","List2","tooth",73,6,6,1,439,439,"unrelated","toothless","tooth","less",9,NA,5,"transparent","consonant",13.5643,1.163289616,1.84428,0.453972347,2.562468003,"toothless","high","high","high","high","A"
"374",8,174,"helpless","List1","weak",74,6,6,1,661,661,"unrelated","weakness","weak","ness",8,4,4,"transparent","consonant",47.9512,1.689763343,21.8338,1.358578193,1.243773344,"weakness","high","low","high","low","B"
"375",8,175,"chiefly","List1","great",75,6,6,1,451,451,"unrelated","greatly","great","ly",7,2,5,"transparent","consonant",639.726,2.806672348,40.3361,1.616329499,1.736448136,"greatly","high","low","high","high","B"
"376",8,176,"strongly","List1","ill",76,6,6,1,628,628,"unrelated","illness","ill","ness",7,4,3,"transparent","consonant",56.5181,1.759804532,35.3982,1.561079907,1.127299457,"illness","high","low","high","low","B"
"377",8,177,"deafness","List1","calm",77,6,6,1,608,608,"unrelated","calmness","calm","ness",8,4,4,"transparent","consonant",41.288,1.626217146,1.01138,0.303494127,5.358315025,"calmness","high","high","high","high","B"
"378",8,178,"deadly","List1","death",78,6,6,1,871,871,"unrelated","deathlike","death","like",9,4,5,"transparent","consonant",233.152,2.369497872,0,0,2369497872,"deathlike","high","high","high","high","B"
"379",8,179,"sickness","List1","waif",79,6,5,0,1206,NA,"unrelated","waiflike","waif","like",8,4,4,"transparent","consonant",0.773406,0.248808173,0,0,248808173,"waiflike","high","high","high","high","B"
"380",8,180,"worthless","List1","high",80,6,6,1,588,588,"unrelated","highly","high","ly",6,2,4,"transparent","consonant",369.866,2.56921702,93.8796,1.977172845,1.2994397658241,"highly","high","low","high","low","B"
"381",8,181,"thankless","List1","stain",81,6,6,1,525,525,"unrelated","stainless","stain","less",9,4,5,"transparent","consonant",7.3771,0.9230937,2.37971,0.528879437,1.7453764197957,"stainless","high","low","high","high","B"
"382",8,182,"toothless","List1","war",82,6,6,1,543,543,"unrelated","warlike","war","like",7,4,3,"transparent","consonant",340.12,2.532907183,1.6063,0.416024404,6.088362011,"warlike","high","high","high","high","B"
"383",8,183,"drawer","List2","tract",83,6,6,1,498,498,"unrelated","tractor","tract","or",7,2,5,"transparent","vowel",3.45058,0.648416612,7.25812,0.916881189,0.707198074,"tractor","high","low","low","low","A"
"384",8,184,"greenish","List2","sculpt",84,6,6,1,742,742,"unrelated","sculptor","sculpt","or",8,2,6,"transparent","vowel",0,0,3.62906,0.66549281,0,"sculptor","high","low","low","low","A"
"385",8,185,"bookish","List2","self",85,6,6,1,452,452,"unrelated","selfish","self","ish",7,3,4,"transparent","vowel",38.9083,1.601063228,12.196,1.120442307,1.428956419,"selfish","high","low","high","low","A"
"386",8,186,"drunken","List2","fresh",86,6,6,1,503,503,"unrelated","freshen","fresh","en",7,2,5,"transparent","vowel",73.8305,1.874078647,0.475942,0.169069291,11.084677914,"freshen","high","high","high","high","A"
"387",8,187,"foolish","List2","debt",87,6,6,1,491,491,"unrelated","debtor","debt","or",6,2,4,"transparent","vowel",26.1768,1.434198318,0.951884,0.290454004,4.937781175,"debtor","high","high","high","high","A"
"388",8,188,"freakish","List2","pray",88,6,6,1,518,518,"unrelated","prayer","pray","er",6,2,4,"transparent","vowel",15.1707,1.20872882,20.5845,1.334141993,0.90599713181654,"prayer","high","low","low","low","A"
"389",8,189,"flaxen","List2","profess",89,6,6,1,821,821,"unrelated","professor","profess","or",9,2,7,"transparent","vowel",0.951884,0.290454004,74.9609,1.880590102,0.154448332,"professor","high","low","low","low","A"
"390",8,190,"hunter","List2","soft",90,6,6,1,624,624,"unrelated","soften","soft","en",6,2,4,"transparent","vowel",81.0886,1.914282849,4.04551,0.702905071,2.723387446,"soften","high","high","high","high","A"
"391",8,191,"sailor","List2","fast",91,6,6,1,551,551,"unrelated","fasten","fast","en",6,2,4,"transparent","vowel",102.982,2.016958166,2.85565,0.586097604,3.441334939,"fasten","high","high","high","high","A"
"392",8,192,"tractor","List1","draw",92,6,6,1,510,510,"unrelated","drawer","draw","er",6,2,4,"transparent","vowel",58.7194,1.776115436,16.0036,1.23054088,1.44336158466888,"drawer","high","low","high","low","B"
"393",8,193,"sculptor","List1","green",93,6,6,1,566,566,"unrelated","greenish","green","ish",8,3,5,"transparent","vowel",154.027,2.190407343,2.73667,0.572484745,3.826140973,"greenish","high","high","high","high","B"
"394",8,194,"selfish","List1","book",94,6,6,1,544,544,"unrelated","bookish","book","ish",7,3,4,"transparent","vowel",252.249,2.403547739,1.6063,0.416024404,5.777420051,"bookish","high","high","high","high","B"
"395",8,195,"freshen","List1","drunk",95,6,6,1,585,585,"unrelated","drunken","drunk","en",7,2,5,"transparent","vowel",38.4918,1.596506929,8.21,0.96425963,1.65568160034276,"drunken","high","low","high","high","B"
"396",8,196,"debtor","List1","fool",96,6,6,1,462,462,"unrelated","foolish","fool","ish",7,3,4,"transparent","vowel",37.4804,1.585239578,20.525,1.33294316,1.18927770094167,"foolish","high","low","high","low","B"
"397",8,197,"prayer","List1","freak",97,6,6,1,578,578,"unrelated","freakish","freak","ish",8,3,5,"transparent","vowel",5.35435,0.803071132,0.713913,0.233988773,3.432092567,"freakish","high","high","high","high","B"
"398",8,198,"professor","List1","flax",98,6,6,1,547,547,"unrelated","flaxen","flax","en",6,2,4,"transparent","vowel",2.20123,0.505316878,0.118986,0.048824653,10.349625376,"flaxen","high","high","high","high","B"
"399",8,199,"soften","List1","hunt",99,6,6,1,525,525,"unrelated","hunter","hunt","er",6,2,4,"transparent","vowel",22.9642,1.379562935,11.8391,1.108534581,1.244492465,"hunter","high","low","high","low","B"
"400",8,200,"fasten","List1","sail",100,6,6,1,629,629,"unrelated","sailor","sail","or",6,2,4,"transparent","vowel",8.21,0.96425963,5.88978,0.838205355,1.15038590853385,"sailor","high","low","high","low","B"
"401",9,1,"breadth","List1","bread",1,6,6,1,475,475,"related","breadth","bread","th",7,2,5,"opaque","consonant",76.9836,1.89200328,4.40246,0.73259156,2.58261681,"breadth","low","high","high","high","A"
"402",9,2,"hearth","List1","hear",2,6,5,0,717,NA,"related","hearth","hear","th",6,2,4,"opaque","consonant",183.476,2.265939873,4.64044,0.751312984,3.01597326,"hearth","low","high","high","high","A"
"403",9,3,"youth","List1","you",3,6,6,1,647,647,"related","youth","you","th",5,2,3,"opaque","consonant",6334.67,3.801792548,63.4788,1.809416946,2.101114701,"youth","low","low","high","high","A"
"404",9,4,"kindling","List2","kind",4,6,6,1,383,383,"related","kindling","kind","ling",8,4,4,"opaque","consonant",409.846,2.613679063,0.951884,0.290454004,8.998598807,"kindling","low","high","high","high","B"
"405",9,5,"dumpling","List2","dump",5,6,6,1,598,598,"related","dumpling","dump","ling",8,4,4,"opaque","consonant",7.67457,0.938247956,0.356957,0.132566086,7.077586563,"dumpling","low","high","high","high","B"
"406",9,6,"random","List2","ran",6,6,6,1,407,407,"related","random","ran","dom",6,3,3,"opaque","consonant",116.606,2.070429479,18.2643,1.284753233,1.61153864,"random","low","low","high","high","B"
"407",9,7,"dearth","List2","dear",7,6,6,1,486,486,"related","dearth","dear","th",6,2,4,"opaque","consonant",119.58,2.08127528,0.951884,0.290454004,7.16559332690214,"dearth","low","high","high","high","B"
"408",9,8,"career","List1","car",8,6,6,1,395,395,"related","career","car","eer",6,3,3,"opaque","vowel",274.916,2.440776885,57.1725,1.764717728,1.383097617,"career","low","low","high","low","A"
"409",9,9,"ratify","List1","rat",9,6,6,1,673,673,"related","ratify","rat","ify",6,3,3,"opaque","vowel",8.68594,0.986141774,0.713913,0.233988773,4.214483273,"ratify","low","high","high","high","A"
"410",9,10,"factory","List1","fact",10,6,5,0,744,NA,"related","factory","fact","ory",7,3,4,"opaque","vowel",448.635,2.65286011,39.2652,1.604929861,1.65294457584216,"factory","low","low","high","high","A"
"411",9,11,"pillory","List1","pill",11,6,6,1,700,700,"related","pillory","pill","ory",7,3,4,"opaque","vowel",13.8023,1.170329202,0.416449,0.151200942,7.740224226,"pillory","low","high","high","high","A"
"412",9,12,"hickory","List2","hick",12,6,6,1,416,416,"related","hickory","hick","ory",7,3,4,"opaque","vowel",1.24935,0.352057037,1.13036,0.328452999,1.071864276,"hickory","low","low","high","low","B"
"413",9,13,"auditory","List2","audit",13,6,5,0,444,NA,"related","auditory","audit","ory",8,3,5,"opaque","vowel",1.6063,0.416024404,0.356957,0.132566086,3.138241562,"auditory","low","high","high","high","B"
"414",9,14,"testify","List2","test",14,6,6,1,691,691,"related","testify","test","ify",7,3,4,"opaque","vowel",79.4228,1.905379189,5.23536,0.794861533,2.397120891,"testify","low","high","high","high","B"
"415",9,15,"seedling","List1","seed",15,6,6,1,488,488,"related","seedling","seed","ling",8,4,4,"transparent","consonant",28.616,1.471526401,0.594928,0.202741082,7.258155965,"seedling","low","high","high","high","A"
"416",9,16,"warmth","List1","warm",16,6,6,1,605,605,"related","warmth","warm","th",6,2,4,"transparent","consonant",94.177,1.978532012,24.987,1.414756146,1.398496848,"warmth","low","low","high","low","A"
"417",9,17,"fourth","List1","four",17,6,6,1,401,401,"related","fourth","four","th",6,2,4,"transparent","consonant",319.714,2.506117918,45.274,1.665337042,1.504871298,"fourth","low","low","high","high","A"
"418",9,18,"boyhood","List1","boy",18,6,5,0,853,NA,"related","boyhood","boy","hood",7,4,3,"transparent","consonant",223.871,2.351933451,4.52145,0.742053144,3.16949462,"boyhood","low","high","high","high","A"
"419",9,19,"eleventh","List1","eleven",19,6,6,1,502,502,"related","eleventh","eleven","th",8,2,6,"transparent","consonant",40.0386,1.613192537,4.69993,0.755869522,2.134220904,"eleventh","low","low","high","high","A"
"420",9,20,"sixth","List1","six",20,6,6,1,456,456,"related","sixth","six","th",5,2,3,"transparent","consonant",203.227,2.310113158,16.063,1.232055391,1.875007547,"sixth","low","low","high","high","A"
"421",9,21,"duckling","List1","duck",21,6,6,1,501,501,"related","duckling","duck","ling",8,4,4,"transparent","consonant",9.8758,1.036461213,0.297464,0.113095317,9.164492672,"duckling","low","high","high","high","A"
"422",9,22,"stardom","List1","star",22,6,6,1,456,456,"related","stardom","star","dom",7,3,4,"transparent","consonant",54.6738,1.745650865,1.13036,0.328452999,5.314766085,"stardom","low","high","high","high","A"
"423",9,23,"manhood","List1","man",23,6,6,1,487,487,"related","manhood","man","hood",7,4,3,"transparent","consonant",1024.11,3.01077047,6.06826,0.849312516,3.5449500740138,"manhood","low","high","high","high","A"
"424",9,24,"boredom","List2","bore",24,6,5,0,694,NA,"related","boredom","bore","dom",7,3,4,"transparent","consonant",28.497,1.469777848,15.2301,1.210321196,1.214370079,"boredom","low","low","high","low","B"
"425",9,25,"tenth","List2","ten",25,6,6,1,440,440,"related","tenth","ten","th",5,2,3,"transparent","consonant",219.647,2.343698027,10.5302,1.061836841,2.207211065,"tenth","low","low","high","high","B"
"426",9,26,"freedom","List2","free",26,6,6,1,496,496,"related","freedom","free","dom",7,3,4,"transparent","consonant",209.652,2.323565587,101.673,2.011456252,1.155165857,"freedom","low","low","high","low","B"
"427",9,27,"kingdom","List2","king",27,6,6,1,581,581,"related","kingdom","king","dom",7,3,4,"transparent","consonant",91.7378,1.967256789,28.973,1.476730214,1.332170744,"kingdom","low","low","high","low","B"
"428",9,28,"sapling","List2","sap",28,6,6,1,525,525,"related","sapling","sap","ling",7,4,3,"transparent","consonant",2.79616,0.579344509,0.713913,0.233988773,2.475950017,"sapling","low","high","high","high","B"
"429",9,29,"earthling","List2","earth",29,6,6,1,481,481,"related","earthling","earth","ling",9,4,5,"transparent","consonant",161.999,2.21218494,0.237971,0.092710471,23.861219690479,"earthling","low","high","high","high","B"
"430",9,30,"growth","List2","grow",30,6,6,1,446,446,"related","growth","grow","th",6,2,4,"transparent","consonant",95.4264,1.984195953,121.841,2.089343343,0.949674432,"growth","low","low","low","low","B"
"431",9,31,"serfdom","List2","serf",31,6,6,1,620,620,"related","serfdom","serf","dom",7,3,4,"transparent","consonant",0.356957,0.132566086,0.237971,0.092710471,1.429893335,"serfdom","low","low","high","low","B"
"432",9,32,"health","List2","heal",32,6,5,0,711,NA,"related","health","heal","th",6,2,4,"transparent","consonant",4.75942,0.76037875,130.587,2.119212986,0.35880242083473,"health","low","low","low","low","B"
"433",9,33,"cashier","List1","cash",33,6,6,1,644,644,"related","cashier","cash","ier",7,3,4,"transparent","vowel",54.3169,1.742857834,2.20123,0.505316878,3.449039418,"cashier","low","high","high","high","A"
"434",9,34,"solidify","List1","solid",34,6,6,1,551,551,"related","solidify","solid","ify",8,3,5,"transparent","vowel",46.5233,1.67690659,0.475942,0.169069291,9.91845751622358,"solidify","low","high","high","high","A"
"435",9,35,"fortify","List1","fort",35,6,6,1,478,478,"related","fortify","fort","ify",7,3,4,"transparent","vowel",23.7971,1.394400893,1.18986,0.340416351,4.09616308,"fortify","low","high","high","high","A"
"436",9,36,"profiteer","List1","profit",36,6,6,1,712,712,"related","profiteer","profit","eer",9,3,6,"transparent","vowel",36.945,1.579154557,0.118986,0.048824653,32.343384492,"profiteer","low","high","high","high","A"
"437",9,37,"directory","List1","direct",37,6,6,1,695,695,"related","directory","direct","ory",9,3,6,"transparent","vowel",94.2365,1.978803426,3.98601,0.697753145,2.835964893,"directory","low","high","high","high","A"
"438",9,38,"armory","List1","arm",38,6,6,1,551,551,"related","armory","arm","ory",6,3,3,"transparent","vowel",111.132,2.049729568,0,0,2049729568,"armory","low","high","high","high","A"
"439",9,39,"acidify","List1","acid",39,6,6,1,550,550,"related","acidify","acid","ify",7,3,4,"transparent","vowel",21.8933,1.359708399,0,0,1359708399,"acidify","low","high","high","high","A"
"440",9,40,"frontier","List1","front",40,6,6,1,661,661,"related","frontier","front","ier",8,3,5,"transparent","vowel",263.077,2.421730578,13.0884,1.148861674,2.107939216,"frontier","low","low","high","high","A"
"441",9,41,"humidify","List1","humid",41,6,6,1,435,435,"related","humidify","humid","ify",8,3,5,"transparent","vowel",3.03413,0.605749889,0.237971,0.092710471,6.533780661,"humidify","low","high","high","high","A"
"442",9,42,"classify","List2","class",42,6,6,1,484,484,"related","classify","class","ify",8,3,5,"transparent","vowel",203.287,2.310240731,1.6658,0.425827564,5.425296343,"classify","low","high","high","high","B"
"443",9,43,"hotelier","List2","hotel",43,6,6,1,625,625,"related","hotelier","hotel","ier",8,3,5,"transparent","vowel",125.589,2.102395969,0.178478,0.071321479,29.47773895,"hotelier","low","high","high","high","B"
"444",9,44,"marketeer","List2","market",44,6,6,1,637,637,"related","marketeer","market","eer",9,3,6,"transparent","vowel",132.55,2.125643892,0.178478,0.071321479,29.803698577,"marketeer","low","high","high","high","B"
"445",9,45,"justify","List2","just",45,6,6,1,459,459,"related","justify","just","ify",7,3,4,"transparent","vowel",1236.44,3.09252415,16.42,1.241048151,2.49186475562312,"justify","low","high","high","high","B"
"446",9,46,"courtier","List2","court",46,6,6,1,700,700,"related","courtier","court","ier",8,3,5,"transparent","vowel",128.088,2.110885872,1.6063,0.416024404,5.073947217,"courtier","low","high","high","high","B"
"447",9,47,"nullify","List2","null",47,6,6,1,438,438,"related","nullify","null","ify",7,3,4,"transparent","vowel",0.356957,0.132566086,0.713913,0.233988773,0.566548915,"nullify","low","low","low","low","B"
"448",9,48,"racketeer","List2","racket",48,6,6,1,396,396,"related","racketeer","racket","eer",9,3,6,"transparent","vowel",11.7201,1.104490526,0.0594928,0.02509801,44.0070938689126,"racketeer","low","high","high","high","B"
"449",9,49,"musketeer","List2","musket",49,6,6,1,612,612,"related","musketeer","musket","eer",9,3,6,"transparent","vowel",0.65442,0.218645772,0,0,218645772,"musketeer","low","high","high","high","B"
"450",9,50,"clothier","List2","cloth",50,6,6,1,491,491,"related","clothier","cloth","ier",8,3,5,"transparent","vowel",47.2967,1.683917457,0,0,1683917457,"clothier","low","high","high","high","B"
"451",9,51,"witness","List1","wit",51,6,6,1,614,614,"related","witness","wit","ness",7,4,3,"opaque","consonant",11.0062,1.079405574,23.7376,1.393357563,0.774679524,"witness","high","low","low","low","A"
"452",9,52,"imply","List2","imp",52,6,6,1,486,486,"related","imply","imp","ly",5,2,3,"opaque","consonant",1.01138,0.303494127,12.1365,1.11847967,0.271345233059672,"imply","high","low","low","low","B"
"453",9,53,"listen","List1","list",53,6,6,1,685,685,"related","listen","list","en",6,2,4,"opaque","vowel",74.6634,1.878885853,75.4368,1.883302497,0.99765484,"listen","high","low","low","low","A"
"454",9,54,"pastor","List1","past",54,6,6,1,561,561,"related","pastor","past","or",6,2,4,"opaque","vowel",273.786,2.438994602,3.62906,0.66549281,3.66494507782143,"pastor","high","high","high","high","A"
"455",9,55,"banish","List1","ban",55,6,6,1,482,482,"related","banish","ban","ish",6,3,3,"opaque","vowel",13.6833,1.166823672,2.14174,0.497170241,2.346929831,"banish","high","low","high","high","A"
"456",9,56,"heathen","List1","heath",56,6,6,1,516,516,"related","heathen","heath","en",7,2,5,"opaque","vowel",13.6238,1.165060239,2.55819,0.551229135,2.113567957,"heathen","high","low","high","high","A"
"457",9,57,"mister","List1","mist",57,6,6,1,627,627,"related","mister","mist","er",6,2,4,"opaque","vowel",13.8023,1.170329202,7.02015,0.904182491,1.294350656,"mister","high","low","high","low","A"
"458",9,58,"raptor","List1","rapt",58,6,5,0,658,NA,"related","raptor","rapt","or",6,2,4,"opaque","vowel",2.14174,0.497170241,0,0,497170241,"raptor","high","high","high","high","A"
"459",9,59,"flower","List2","flow",59,6,6,1,611,611,"related","flower","flow","er",6,2,4,"opaque","vowel",41.9424,1.632886313,27.9616,1.461822551,1.11702088,"flower","high","low","high","low","B"
"460",9,60,"traitor","List2","trait",60,6,5,0,780,NA,"related","traitor","trait","or",7,2,5,"opaque","vowel",3.2721,0.63064141,6.18725,0.856562752,0.736246594649674,"traitor","high","low","low","low","B"
"461",9,61,"limber","List2","limb",61,6,6,1,452,452,"related","limber","limb","er",6,2,4,"opaque","vowel",7.91254,0.950001492,0.773406,0.248808173,3.818208529,"limber","high","high","high","high","B"
"462",9,62,"hunger","List2","hung",62,6,5,0,483,NA,"related","hunger","hung","er",6,2,4,"opaque","vowel",58.6004,1.775249174,25.2249,1.418713841,1.251308841,"hunger","high","low","high","low","B"
"463",9,63,"pollen","List2","poll",63,6,5,0,664,NA,"related","pollen","poll","en",6,2,4,"opaque","vowel",8.38848,0.972595285,5.88978,0.838205355,1.160330554,"pollen","high","low","high","low","B"
"464",9,64,"vanish","List2","van",64,6,6,1,590,590,"related","vanish","van","ish",6,3,3,"opaque","vowel",56.3396,1.758454659,6.18725,0.856562752,2.052919827,"vanish","high","low","high","high","B"
"465",9,65,"helpless","List1","help",65,6,6,1,527,527,"related","helpless","help","less",8,4,4,"transparent","consonant",375.221,2.575443033,19.3351,1.308246312,1.968622428,"helpless","high","low","high","high","A"
"466",9,66,"chiefly","List1","chief",66,6,6,1,521,521,"related","chiefly","chief","ly",7,2,5,"transparent","consonant",105.54,2.027512692,11.3036,1.090032203,1.860048432,"chiefly","high","low","high","high","A"
"467",9,67,"strongly","List1","strong",67,6,6,1,658,658,"related","strongly","strong","ly",8,2,6,"transparent","consonant",167.948,2.227753055,42.3588,1.637077254,1.360811195,"strongly","high","low","high","low","A"
"468",9,68,"deafness","List1","deaf",68,6,5,0,687,NA,"related","deafness","deaf","ness",8,4,4,"transparent","consonant",9.51884,1.021967849,2.08225,0.488867861,2.090478693,"deafness","high","low","high","high","A"
"469",9,69,"deadly","List1","dead",69,6,6,1,636,636,"related","deadly","dead","ly",6,2,4,"transparent","consonant",190.079,2.28121296,13.6833,1.166823672,1.95506228814746,"deadly","high","low","high","high","A"
"470",9,70,"sickness","List1","sick",70,6,6,1,648,648,"related","sickness","sick","ness",8,4,4,"transparent","consonant",70.6179,1.855021582,16.4795,1.242529006,1.492940263,"sickness","high","low","high","low","A"
"471",9,71,"worthless","List1","worth",71,6,6,1,415,415,"related","worthless","worth","less",9,4,5,"transparent","consonant",99.1149,2.000498718,5.17587,0.790698146,2.530040984,"worthless","high","high","high","high","A"
"472",9,72,"thankless","List1","thank",72,6,6,1,548,548,"related","thankless","thank","less",9,4,5,"transparent","consonant",69.4875,1.848112108,0.65442,0.218645772,8.452539844,"thankless","high","high","high","high","A"
"473",9,73,"toothless","List1","tooth",73,6,6,1,663,663,"related","toothless","tooth","less",9,NA,5,"transparent","consonant",13.5643,1.163289616,1.84428,0.453972347,2.562468003,"toothless","high","high","high","high","A"
"474",9,74,"weakness","List2","weak",74,6,6,1,407,407,"related","weakness","weak","ness",8,4,4,"transparent","consonant",47.9512,1.689763343,21.8338,1.358578193,1.243773344,"weakness","high","low","high","low","B"
"475",9,75,"greatly","List2","great",75,6,6,1,495,495,"related","greatly","great","ly",7,2,5,"transparent","consonant",639.726,2.806672348,40.3361,1.616329499,1.736448136,"greatly","high","low","high","high","B"
"476",9,76,"illness","List2","ill",76,6,6,1,688,688,"related","illness","ill","ness",7,4,3,"transparent","consonant",56.5181,1.759804532,35.3982,1.561079907,1.127299457,"illness","high","low","high","low","B"
"477",9,77,"calmness","List2","calm",77,6,6,1,406,406,"related","calmness","calm","ness",8,4,4,"transparent","consonant",41.288,1.626217146,1.01138,0.303494127,5.358315025,"calmness","high","high","high","high","B"
"478",9,78,"deathlike","List2","death",78,6,6,1,433,433,"related","deathlike","death","like",9,4,5,"transparent","consonant",233.152,2.369497872,0,0,2369497872,"deathlike","high","high","high","high","B"
"479",9,79,"waiflike","List2","waif",79,6,6,1,661,661,"related","waiflike","waif","like",8,4,4,"transparent","consonant",0.773406,0.248808173,0,0,248808173,"waiflike","high","high","high","high","B"
