"","subject","trigger","prime.x","list.x","target","stemid","correct_response","target.resp","target.acc","target.rt","target.rt.trm.err","relatedness","w_word","stem","affix","whl_word_len","afx_len","stem_len","transp","afx_onset","stem_frq","stem_logfrq","whl_word_freq","whl_word_logfrq","rel_frq","prime.y","afx_frq","med_splt","r1_splt","r1.5_splt","list.y","new.rt","log.rt","inverse.rt"
"1",7,1,"breadth","List1","bread",1,6,6,1,469,469,"related","breadth","bread","th",7,2,5,"opaque","consonant",76.9836,1.89200328,4.40246,0.73259156,2.58261681,"breadth","low","high","high","high","A",469,6.15060276844628,0.00213219616204691
"2",7,2,"hearth","List1","hear",2,6,6,1,497,497,"related","hearth","hear","th",6,2,4,"opaque","consonant",183.476,2.265939873,4.64044,0.751312984,3.01597326,"hearth","low","high","high","high","A",497,6.20859002609663,0.00201207243460765
"3",7,3,"youth","List1","you",3,6,6,1,504,504,"related","youth","you","th",5,2,3,"opaque","consonant",6334.67,3.801792548,63.4788,1.809416946,2.101114701,"youth","low","low","high","high","A",504,6.22257626807137,0.00198412698412698
"4",7,4,"kindling","List2","kind",4,6,6,1,667,667,"related","kindling","kind","ling",8,4,4,"opaque","consonant",409.846,2.613679063,0.951884,0.290454004,8.998598807,"kindling","low","high","high","high","B",667,6.50279004591562,0.00149925037481259
"5",7,5,"dumpling","List2","dump",5,6,6,1,502,502,"related","dumpling","dump","ling",8,4,4,"opaque","consonant",7.67457,0.938247956,0.356957,0.132566086,7.077586563,"dumpling","low","high","high","high","B",502,6.21860011969173,0.00199203187250996
"6",7,6,"random","List2","ran",6,6,6,1,1141,1141,"related","random","ran","dom",6,3,3,"opaque","consonant",116.606,2.070429479,18.2643,1.284753233,1.61153864,"random","low","low","high","high","B",1141,7.03966034986208,0.000876424189307625
"7",7,7,"dearth","List2","dear",7,6,6,1,687,687,"related","dearth","dear","th",6,2,4,"opaque","consonant",119.58,2.08127528,0.951884,0.290454004,7.16559332690214,"dearth","low","high","high","high","B",687,6.53233429222235,0.00145560407569141
"8",7,8,"career","List1","car",8,6,6,1,827,827,"related","career","car","eer",6,3,3,"opaque","vowel",274.916,2.440776885,57.1725,1.764717728,1.383097617,"career","low","low","high","low","A",827,6.71780469502369,0.00120918984280532
"9",7,9,"ratify","List1","rat",9,6,6,1,480,480,"related","ratify","rat","ify",6,3,3,"opaque","vowel",8.68594,0.986141774,0.713913,0.233988773,4.214483273,"ratify","low","high","high","high","A",480,6.17378610390194,0.00208333333333333
"10",7,10,"factory","List1","fact",10,6,6,1,607,607,"related","factory","fact","ory",7,3,4,"opaque","vowel",448.635,2.65286011,39.2652,1.604929861,1.65294457584216,"factory","low","low","high","high","A",607,6.4085287910595,0.00164744645799012
"11",7,11,"pillory","List1","pill",11,6,6,1,611,611,"related","pillory","pill","ory",7,3,4,"opaque","vowel",13.8023,1.170329202,0.416449,0.151200942,7.740224226,"pillory","low","high","high","high","A",611,6.4150969591716,0.0016366612111293
"12",7,12,"hickory","List2","hick",12,6,6,1,555,555,"related","hickory","hick","ory",7,3,4,"opaque","vowel",1.24935,0.352057037,1.13036,0.328452999,1.071864276,"hickory","low","low","high","low","B",555,6.31896811374643,0.0018018018018018
"13",7,13,"auditory","List2","audit",13,6,5,0,441,NA,"related","auditory","audit","ory",8,3,5,"opaque","vowel",1.6063,0.416024404,0.356957,0.132566086,3.138241562,"auditory","low","high","high","high","B",591.400743331876,6.38249386431964,0.00169090081687441
"14",7,14,"testify","List2","test",14,6,6,1,501,501,"related","testify","test","ify",7,3,4,"opaque","vowel",79.4228,1.905379189,5.23536,0.794861533,2.397120891,"testify","low","high","high","high","B",501,6.21660610108486,0.00199600798403194
"15",7,15,"seedling","List1","seed",15,6,6,1,533,533,"related","seedling","seed","ling",8,4,4,"transparent","consonant",28.616,1.471526401,0.594928,0.202741082,7.258155965,"seedling","low","high","high","high","A",533,6.27852142416584,0.00187617260787992
"16",7,16,"warmth","List1","warm",16,6,6,1,469,469,"related","warmth","warm","th",6,2,4,"transparent","consonant",94.177,1.978532012,24.987,1.414756146,1.398496848,"warmth","low","low","high","low","A",469,6.15060276844628,0.00213219616204691
"17",7,17,"fourth","List1","four",17,6,6,1,439,439,"related","fourth","four","th",6,2,4,"transparent","consonant",319.714,2.506117918,45.274,1.665337042,1.504871298,"fourth","low","low","high","high","A",439,6.08449941307517,0.00227790432801822
"18",7,18,"boyhood","List1","boy",18,6,6,1,430,430,"related","boyhood","boy","hood",7,4,3,"transparent","consonant",223.871,2.351933451,4.52145,0.742053144,3.16949462,"boyhood","low","high","high","high","A",430,6.06378520868761,0.00232558139534884
"19",7,19,"eleventh","List1","eleven",19,6,6,1,489,489,"related","eleventh","eleven","th",8,2,6,"transparent","consonant",40.0386,1.613192537,4.69993,0.755869522,2.134220904,"eleventh","low","low","high","high","A",489,6.19236248947487,0.00204498977505112
"20",7,20,"sixth","List1","six",20,6,6,1,581,581,"related","sixth","six","th",5,2,3,"transparent","consonant",203.227,2.310113158,16.063,1.232055391,1.875007547,"sixth","low","low","high","high","A",581,6.36475075685191,0.00172117039586919
"21",7,21,"duckling","List1","duck",21,6,6,1,741,741,"related","duckling","duck","ling",8,4,4,"transparent","consonant",9.8758,1.036461213,0.297464,0.113095317,9.164492672,"duckling","low","high","high","high","A",741,6.60800062529609,0.00134952766531714
"22",7,22,"stardom","List1","star",22,6,6,1,504,504,"related","stardom","star","dom",7,3,4,"transparent","consonant",54.6738,1.745650865,1.13036,0.328452999,5.314766085,"stardom","low","high","high","high","A",504,6.22257626807137,0.00198412698412698
"23",7,23,"manhood","List1","man",23,6,6,1,436,436,"related","manhood","man","hood",7,4,3,"transparent","consonant",1024.11,3.01077047,6.06826,0.849312516,3.5449500740138,"manhood","low","high","high","high","A",436,6.07764224334903,0.00229357798165138
"24",7,24,"boredom","List2","bore",24,6,6,1,547,547,"related","boredom","bore","dom",7,3,4,"transparent","consonant",28.497,1.469777848,15.2301,1.210321196,1.214370079,"boredom","low","low","high","low","B",547,6.30444880242198,0.00182815356489945
"25",7,25,"tenth","List2","ten",25,6,6,1,456,456,"related","tenth","ten","th",5,2,3,"transparent","consonant",219.647,2.343698027,10.5302,1.061836841,2.207211065,"tenth","low","low","high","high","B",456,6.12249280951439,0.00219298245614035
"26",7,26,"freedom","List2","free",26,6,6,1,563,563,"related","freedom","free","dom",7,3,4,"transparent","consonant",209.652,2.323565587,101.673,2.011456252,1.155165857,"freedom","low","low","high","low","B",563,6.33327962813969,0.00177619893428064
"27",7,27,"kingdom","List2","king",27,6,6,1,474,474,"related","kingdom","king","dom",7,3,4,"transparent","consonant",91.7378,1.967256789,28.973,1.476730214,1.332170744,"kingdom","low","low","high","low","B",474,6.16120732169508,0.00210970464135021
"28",7,28,"sapling","List2","sap",28,6,6,1,605,605,"related","sapling","sap","ling",7,4,3,"transparent","consonant",2.79616,0.579344509,0.713913,0.233988773,2.475950017,"sapling","low","high","high","high","B",605,6.40522845803084,0.00165289256198347
"29",7,29,"earthling","List2","earth",29,6,6,1,512,512,"related","earthling","earth","ling",9,4,5,"transparent","consonant",161.999,2.21218494,0.237971,0.092710471,23.861219690479,"earthling","low","high","high","high","B",512,6.23832462503951,0.001953125
"30",7,30,"growth","List2","grow",30,6,5,0,374,NA,"related","growth","grow","th",6,2,4,"transparent","consonant",95.4264,1.984195953,121.841,2.089343343,0.949674432,"growth","low","low","low","low","B",591.400743331876,6.38249386431964,0.00169090081687441
"31",7,31,"serfdom","List2","serf",31,6,6,1,592,592,"related","serfdom","serf","dom",7,3,4,"transparent","consonant",0.356957,0.132566086,0.237971,0.092710471,1.429893335,"serfdom","low","low","high","low","B",592,6.38350663488401,0.00168918918918919
"32",7,32,"health","List2","heal",32,6,6,1,666,666,"related","health","heal","th",6,2,4,"transparent","consonant",4.75942,0.76037875,130.587,2.119212986,0.35880242083473,"health","low","low","low","low","B",666,6.50128967054039,0.0015015015015015
"33",7,33,"cashier","List1","cash",33,6,6,1,497,497,"related","cashier","cash","ier",7,3,4,"transparent","vowel",54.3169,1.742857834,2.20123,0.505316878,3.449039418,"cashier","low","high","high","high","A",497,6.20859002609663,0.00201207243460765
"34",7,34,"solidify","List1","solid",34,6,6,1,533,533,"related","solidify","solid","ify",8,3,5,"transparent","vowel",46.5233,1.67690659,0.475942,0.169069291,9.91845751622358,"solidify","low","high","high","high","A",533,6.27852142416584,0.00187617260787992
"35",7,35,"fortify","List1","fort",35,6,6,1,696,696,"related","fortify","fort","ify",7,3,4,"transparent","vowel",23.7971,1.394400893,1.18986,0.340416351,4.09616308,"fortify","low","high","high","high","A",696,6.54534966033442,0.0014367816091954
"36",7,36,"profiteer","List1","profit",36,6,6,1,886,886,"related","profiteer","profit","eer",9,3,6,"transparent","vowel",36.945,1.579154557,0.118986,0.048824653,32.343384492,"profiteer","low","high","high","high","A",886,6.78671695060508,0.00112866817155756
"37",7,37,"directory","List1","direct",37,6,5,0,543,NA,"related","directory","direct","ory",9,3,6,"transparent","vowel",94.2365,1.978803426,3.98601,0.697753145,2.835964893,"directory","low","high","high","high","A",591.400743331876,6.38249386431964,0.00169090081687441
"38",7,38,"armory","List1","arm",38,6,6,1,654,654,"related","armory","arm","ory",6,3,3,"transparent","vowel",111.132,2.049729568,0,0,2049729568,"armory","low","high","high","high","A",654,6.4831073514572,0.00152905198776758
"39",7,39,"acidify","List1","acid",39,6,6,1,577,577,"related","acidify","acid","ify",7,3,4,"transparent","vowel",21.8933,1.359708399,0,0,1359708399,"acidify","low","high","high","high","A",577,6.3578422665081,0.00173310225303293
"40",7,40,"frontier","List1","front",40,6,6,1,663,663,"related","frontier","front","ier",8,3,5,"transparent","vowel",263.077,2.421730578,13.0884,1.148861674,2.107939216,"frontier","low","low","high","high","A",663,6.49677499018586,0.00150829562594268
"41",7,41,"humidify","List1","humid",41,6,6,1,400,400,"related","humidify","humid","ify",8,3,5,"transparent","vowel",3.03413,0.605749889,0.237971,0.092710471,6.533780661,"humidify","low","high","high","high","A",400,5.99146454710798,0.0025
"42",7,42,"classify","List2","class",42,6,6,1,478,478,"related","classify","class","ify",8,3,5,"transparent","vowel",203.287,2.310240731,1.6658,0.425827564,5.425296343,"classify","low","high","high","high","B",478,6.16961073249146,0.00209205020920502
"43",7,43,"hotelier","List2","hotel",43,6,6,1,604,604,"related","hotelier","hotel","ier",8,3,5,"transparent","vowel",125.589,2.102395969,0.178478,0.071321479,29.47773895,"hotelier","low","high","high","high","B",604,6.40357419793482,0.00165562913907285
"44",7,44,"marketeer","List2","market",44,6,6,1,541,541,"related","marketeer","market","eer",9,3,6,"transparent","vowel",132.55,2.125643892,0.178478,0.071321479,29.803698577,"marketeer","low","high","high","high","B",541,6.29341927884648,0.00184842883548983
"45",7,45,"justify","List2","just",45,6,6,1,506,506,"related","justify","just","ify",7,3,4,"transparent","vowel",1236.44,3.09252415,16.42,1.241048151,2.49186475562312,"justify","low","high","high","high","B",506,6.22653666928747,0.00197628458498024
"46",7,46,"courtier","List2","court",46,6,6,1,538,538,"related","courtier","court","ier",8,3,5,"transparent","vowel",128.088,2.110885872,1.6063,0.416024404,5.073947217,"courtier","low","high","high","high","B",538,6.28785856016178,0.00185873605947955
"47",7,47,"nullify","List2","null",47,6,6,1,567,567,"related","nullify","null","ify",7,3,4,"transparent","vowel",0.356957,0.132566086,0.713913,0.233988773,0.566548915,"nullify","low","low","low","low","B",567,6.34035930372775,0.0017636684303351
"48",7,48,"racketeer","List2","racket",48,6,6,1,528,528,"related","racketeer","racket","eer",9,3,6,"transparent","vowel",11.7201,1.104490526,0.0594928,0.02509801,44.0070938689126,"racketeer","low","high","high","high","B",528,6.26909628370626,0.00189393939393939
"49",7,49,"musketeer","List2","musket",49,6,6,1,479,479,"related","musketeer","musket","eer",9,3,6,"transparent","vowel",0.65442,0.218645772,0,0,218645772,"musketeer","low","high","high","high","B",479,6.17170059741091,0.00208768267223382
"50",7,50,"clothier","List2","cloth",50,6,6,1,717,717,"related","clothier","cloth","ier",8,3,5,"transparent","vowel",47.2967,1.683917457,0,0,1683917457,"clothier","low","high","high","high","B",717,6.57507584059962,0.00139470013947001
"51",7,51,"witness","List1","wit",51,6,6,1,572,572,"related","witness","wit","ness",7,4,3,"opaque","consonant",11.0062,1.079405574,23.7376,1.393357563,0.774679524,"witness","high","low","low","low","A",572,6.3491389913798,0.00174825174825175
"52",7,52,"imply","List2","imp",52,6,5,0,779,NA,"related","imply","imp","ly",5,2,3,"opaque","consonant",1.01138,0.303494127,12.1365,1.11847967,0.271345233059672,"imply","high","low","low","low","B",591.400743331876,6.38249386431964,0.00169090081687441
"53",7,53,"listen","List1","list",53,6,6,1,743,743,"related","listen","list","en",6,2,4,"opaque","vowel",74.6634,1.878885853,75.4368,1.883302497,0.99765484,"listen","high","low","low","low","A",743,6.61069604471776,0.00134589502018843
"54",7,54,"pastor","List1","past",54,6,6,1,549,549,"related","pastor","past","or",6,2,4,"opaque","vowel",273.786,2.438994602,3.62906,0.66549281,3.66494507782143,"pastor","high","high","high","high","A",549,6.30809844150953,0.00182149362477231
"55",7,55,"banish","List1","ban",55,6,6,1,513,513,"related","banish","ban","ish",6,3,3,"opaque","vowel",13.6833,1.166823672,2.14174,0.497170241,2.346929831,"banish","high","low","high","high","A",513,6.24027584517077,0.00194931773879142
"56",7,56,"heathen","List1","heath",56,6,6,1,475,475,"related","heathen","heath","en",7,2,5,"opaque","vowel",13.6238,1.165060239,2.55819,0.551229135,2.113567957,"heathen","high","low","high","high","A",475,6.16331480403464,0.00210526315789474
"57",7,57,"mister","List1","mist",57,6,6,1,471,471,"related","mister","mist","er",6,2,4,"opaque","vowel",13.8023,1.170329202,7.02015,0.904182491,1.294350656,"mister","high","low","high","low","A",471,6.15485809401642,0.00212314225053079
"58",7,58,"raptor","List1","rapt",58,6,6,1,663,663,"related","raptor","rapt","or",6,2,4,"opaque","vowel",2.14174,0.497170241,0,0,497170241,"raptor","high","high","high","high","A",663,6.49677499018586,0.00150829562594268
"59",7,59,"flower","List2","flow",59,6,6,1,554,554,"related","flower","flow","er",6,2,4,"opaque","vowel",41.9424,1.632886313,27.9616,1.461822551,1.11702088,"flower","high","low","high","low","B",554,6.31716468674728,0.00180505415162455
"60",7,60,"traitor","List2","trait",60,6,6,1,528,528,"related","traitor","trait","or",7,2,5,"opaque","vowel",3.2721,0.63064141,6.18725,0.856562752,0.736246594649674,"traitor","high","low","low","low","B",528,6.26909628370626,0.00189393939393939
"61",7,61,"limber","List2","limb",61,6,6,1,629,629,"related","limber","limb","er",6,2,4,"opaque","vowel",7.91254,0.950001492,0.773406,0.248808173,3.818208529,"limber","high","high","high","high","B",629,6.44413125670044,0.00158982511923688
"62",7,62,"hunger","List2","hung",62,6,5,0,286,NA,"related","hunger","hung","er",6,2,4,"opaque","vowel",58.6004,1.775249174,25.2249,1.418713841,1.251308841,"hunger","high","low","high","low","B",591.400743331876,6.38249386431964,0.00169090081687441
"63",7,63,"pollen","List2","poll",63,6,6,1,522,522,"related","pollen","poll","en",6,2,4,"opaque","vowel",8.38848,0.972595285,5.88978,0.838205355,1.160330554,"pollen","high","low","high","low","B",522,6.25766758788264,0.00191570881226054
"64",7,64,"vanish","List2","van",64,6,6,1,483,483,"related","vanish","van","ish",6,3,3,"opaque","vowel",56.3396,1.758454659,6.18725,0.856562752,2.052919827,"vanish","high","low","high","high","B",483,6.18001665365257,0.0020703933747412
"65",7,65,"helpless","List1","help",65,6,6,1,544,544,"related","helpless","help","less",8,4,4,"transparent","consonant",375.221,2.575443033,19.3351,1.308246312,1.968622428,"helpless","high","low","high","high","A",544,6.29894924685594,0.00183823529411765
"66",7,66,"chiefly","List1","chief",66,6,6,1,509,509,"related","chiefly","chief","ly",7,2,5,"transparent","consonant",105.54,2.027512692,11.3036,1.090032203,1.860048432,"chiefly","high","low","high","high","A",509,6.23244801655052,0.00196463654223969
"67",7,67,"strongly","List1","strong",67,6,6,1,428,428,"related","strongly","strong","ly",8,2,6,"transparent","consonant",167.948,2.227753055,42.3588,1.637077254,1.360811195,"strongly","high","low","high","low","A",428,6.0591231955818,0.00233644859813084
"68",7,68,"deafness","List1","deaf",68,6,6,1,480,480,"related","deafness","deaf","ness",8,4,4,"transparent","consonant",9.51884,1.021967849,2.08225,0.488867861,2.090478693,"deafness","high","low","high","high","A",480,6.17378610390194,0.00208333333333333
"69",7,69,"deadly","List1","dead",69,6,6,1,453,453,"related","deadly","dead","ly",6,2,4,"transparent","consonant",190.079,2.28121296,13.6833,1.166823672,1.95506228814746,"deadly","high","low","high","high","A",453,6.11589212548303,0.0022075055187638
"70",7,70,"sickness","List1","sick",70,6,6,1,471,471,"related","sickness","sick","ness",8,4,4,"transparent","consonant",70.6179,1.855021582,16.4795,1.242529006,1.492940263,"sickness","high","low","high","low","A",471,6.15485809401642,0.00212314225053079
"71",7,71,"worthless","List1","worth",71,6,6,1,518,518,"related","worthless","worth","less",9,4,5,"transparent","consonant",99.1149,2.000498718,5.17587,0.790698146,2.530040984,"worthless","high","high","high","high","A",518,6.24997524225948,0.00193050193050193
"72",7,72,"thankless","List1","thank",72,6,6,1,451,451,"related","thankless","thank","less",9,4,5,"transparent","consonant",69.4875,1.848112108,0.65442,0.218645772,8.452539844,"thankless","high","high","high","high","A",451,6.11146733950268,0.00221729490022173
"73",7,73,"toothless","List1","tooth",73,6,6,1,498,498,"related","toothless","tooth","less",9,NA,5,"transparent","consonant",13.5643,1.163289616,1.84428,0.453972347,2.562468003,"toothless","high","high","high","high","A",498,6.21060007702465,0.00200803212851406
"74",7,74,"weakness","List2","weak",74,6,6,1,461,461,"related","weakness","weak","ness",8,4,4,"transparent","consonant",47.9512,1.689763343,21.8338,1.358578193,1.243773344,"weakness","high","low","high","low","B",461,6.13339804299665,0.00216919739696312
"75",7,75,"greatly","List2","great",75,6,6,1,527,527,"related","greatly","great","ly",7,2,5,"transparent","consonant",639.726,2.806672348,40.3361,1.616329499,1.736448136,"greatly","high","low","high","high","B",527,6.26720054854136,0.00189753320683112
"76",7,76,"illness","List2","ill",76,6,6,1,617,617,"related","illness","ill","ness",7,4,3,"transparent","consonant",56.5181,1.759804532,35.3982,1.561079907,1.127299457,"illness","high","low","high","low","B",617,6.42486902390539,0.00162074554294976
"77",7,77,"calmness","List2","calm",77,6,6,1,487,487,"related","calmness","calm","ness",8,4,4,"transparent","consonant",41.288,1.626217146,1.01138,0.303494127,5.358315025,"calmness","high","high","high","high","B",487,6.18826412308259,0.00205338809034908
"78",7,78,"deathlike","List2","death",78,6,6,1,742,742,"related","deathlike","death","like",9,4,5,"transparent","consonant",233.152,2.369497872,0,0,2369497872,"deathlike","high","high","high","high","B",742,6.60934924316738,0.00134770889487871
"79",7,79,"waiflike","List2","waif",79,6,5,0,649,NA,"related","waiflike","waif","like",8,4,4,"transparent","consonant",0.773406,0.248808173,0,0,248808173,"waiflike","high","high","high","high","B",591.400743331876,6.38249386431964,0.00169090081687441
"80",7,80,"highly","List2","high",80,6,6,1,591,591,"related","highly","high","ly",6,2,4,"transparent","consonant",369.866,2.56921702,93.8796,1.977172845,1.2994397658241,"highly","high","low","high","low","B",591,6.3818160174061,0.00169204737732657
"81",7,81,"stainless","List2","stain",81,6,6,1,534,534,"related","stainless","stain","less",9,4,5,"transparent","consonant",7.3771,0.9230937,2.37971,0.528879437,1.7453764197957,"stainless","high","low","high","high","B",534,6.2803958389602,0.00187265917602996
"82",7,82,"warlike","List2","war",82,6,6,1,488,488,"related","warlike","war","like",7,4,3,"transparent","consonant",340.12,2.532907183,1.6063,0.416024404,6.088362011,"warlike","high","high","high","high","B",488,6.19031540585315,0.00204918032786885
"83",7,83,"tractor","List1","tract",83,6,6,1,872,872,"related","tractor","tract","or",7,2,5,"transparent","vowel",3.45058,0.648416612,7.25812,0.916881189,0.707198074,"tractor","high","low","low","low","A",872,6.77078942390898,0.00114678899082569
"84",7,84,"sculptor","List1","sculpt",84,6,5,0,485,NA,"related","sculptor","sculpt","or",8,2,6,"transparent","vowel",0,0,3.62906,0.66549281,0,"sculptor","high","low","low","low","A",591.400743331876,6.38249386431964,0.00169090081687441
"85",7,85,"selfish","List1","self",85,6,6,1,495,495,"related","selfish","self","ish",7,3,4,"transparent","vowel",38.9083,1.601063228,12.196,1.120442307,1.428956419,"selfish","high","low","high","low","A",495,6.20455776256869,0.00202020202020202
"86",7,86,"freshen","List1","fresh",86,6,6,1,459,459,"related","freshen","fresh","en",7,2,5,"transparent","vowel",73.8305,1.874078647,0.475942,0.169069291,11.084677914,"freshen","high","high","high","high","A",459,6.12905021006055,0.00217864923747277
"87",7,87,"debtor","List1","debt",87,6,5,0,555,NA,"related","debtor","debt","or",6,2,4,"transparent","vowel",26.1768,1.434198318,0.951884,0.290454004,4.937781175,"debtor","high","high","high","high","A",591.400743331876,6.38249386431964,0.00169090081687441
"88",7,88,"prayer","List1","pray",88,6,6,1,491,491,"related","prayer","pray","er",6,2,4,"transparent","vowel",15.1707,1.20872882,20.5845,1.334141993,0.90599713181654,"prayer","high","low","low","low","A",491,6.19644412779452,0.00203665987780041
"89",7,89,"professor","List1","profess",89,6,6,1,796,796,"related","professor","profess","or",9,2,7,"transparent","vowel",0.951884,0.290454004,74.9609,1.880590102,0.154448332,"professor","high","low","low","low","A",796,6.67959918584438,0.00125628140703518
"90",7,90,"soften","List1","soft",90,6,6,1,510,510,"related","soften","soft","en",6,2,4,"transparent","vowel",81.0886,1.914282849,4.04551,0.702905071,2.723387446,"soften","high","high","high","high","A",510,6.23441072571837,0.00196078431372549
"91",7,91,"fasten","List1","fast",91,6,6,1,579,579,"related","fasten","fast","en",6,2,4,"transparent","vowel",102.982,2.016958166,2.85565,0.586097604,3.441334939,"fasten","high","high","high","high","A",579,6.361302477573,0.00172711571675302
"92",7,92,"drawer","List2","draw",92,6,5,0,503,NA,"related","drawer","draw","er",6,2,4,"transparent","vowel",58.7194,1.776115436,16.0036,1.23054088,1.44336158466888,"drawer","high","low","high","low","B",591.400743331876,6.38249386431964,0.00169090081687441
"93",7,93,"greenish","List2","green",93,6,6,1,474,474,"related","greenish","green","ish",8,3,5,"transparent","vowel",154.027,2.190407343,2.73667,0.572484745,3.826140973,"greenish","high","high","high","high","B",474,6.16120732169508,0.00210970464135021
"94",7,94,"bookish","List2","book",94,6,6,1,485,485,"related","bookish","book","ish",7,3,4,"transparent","vowel",252.249,2.403547739,1.6063,0.416024404,5.777420051,"bookish","high","high","high","high","B",485,6.18414889093748,0.00206185567010309
"95",7,95,"drunken","List2","drunk",95,6,6,1,538,538,"related","drunken","drunk","en",7,2,5,"transparent","vowel",38.4918,1.596506929,8.21,0.96425963,1.65568160034276,"drunken","high","low","high","high","B",538,6.28785856016178,0.00185873605947955
"96",7,96,"foolish","List2","fool",96,6,6,1,472,472,"related","foolish","fool","ish",7,3,4,"transparent","vowel",37.4804,1.585239578,20.525,1.33294316,1.18927770094167,"foolish","high","low","high","low","B",472,6.15697898558556,0.00211864406779661
"97",7,97,"freakish","List2","freak",97,6,6,1,480,480,"related","freakish","freak","ish",8,3,5,"transparent","vowel",5.35435,0.803071132,0.713913,0.233988773,3.432092567,"freakish","high","high","high","high","B",480,6.17378610390194,0.00208333333333333
"98",7,98,"flaxen","List2","flax",98,6,6,1,493,493,"related","flaxen","flax","en",6,2,4,"transparent","vowel",2.20123,0.505316878,0.118986,0.048824653,10.349625376,"flaxen","high","high","high","high","B",493,6.20050917404269,0.00202839756592292
"99",7,99,"hunter","List2","hunt",99,6,6,1,525,525,"related","hunter","hunt","er",6,2,4,"transparent","vowel",22.9642,1.379562935,11.8391,1.108534581,1.244492465,"hunter","high","low","high","low","B",525,6.26339826259162,0.0019047619047619
"100",7,100,"sailor","List2","sail",100,6,6,1,476,476,"related","sailor","sail","or",6,2,4,"transparent","vowel",8.21,0.96425963,5.88978,0.838205355,1.15038590853385,"sailor","high","low","high","low","B",476,6.16541785423142,0.00210084033613445
"101",7,101,"kindling","List2","bread",1,6,6,1,470,470,"unrelated","breadth","bread","th",7,2,5,"opaque","consonant",76.9836,1.89200328,4.40246,0.73259156,2.58261681,"breadth","low","high","high","high","A",470,6.1527326947041,0.00212765957446809
"102",7,102,"dumpling","List2","hear",2,6,6,1,499,499,"unrelated","hearth","hear","th",6,2,4,"opaque","consonant",183.476,2.265939873,4.64044,0.751312984,3.01597326,"hearth","low","high","high","high","A",499,6.21260609575152,0.00200400801603206
"103",7,103,"random","List2","you",3,6,6,1,419,419,"unrelated","youth","you","th",5,2,3,"opaque","consonant",6334.67,3.801792548,63.4788,1.809416946,2.101114701,"youth","low","low","high","high","A",419,6.03787091992214,0.00238663484486874
"104",7,104,"breadth","List1","kind",4,6,6,1,591,591,"unrelated","kindling","kind","ling",8,4,4,"opaque","consonant",409.846,2.613679063,0.951884,0.290454004,8.998598807,"kindling","low","high","high","high","B",591,6.3818160174061,0.00169204737732657
"105",7,105,"hearth","List1","dump",5,6,6,1,390,390,"unrelated","dumpling","dump","ling",8,4,4,"opaque","consonant",7.67457,0.938247956,0.356957,0.132566086,7.077586563,"dumpling","low","high","high","high","B",390,5.96614673912369,0.00256410256410256
"106",7,106,"youth","List1","ran",6,6,6,1,561,561,"unrelated","random","ran","dom",6,3,3,"opaque","consonant",116.606,2.070429479,18.2643,1.284753233,1.61153864,"random","low","low","high","high","B",561,6.3297209055227,0.0017825311942959
"107",7,107,"pillory","List1","dear",7,6,6,1,637,637,"unrelated","dearth","dear","th",6,2,4,"opaque","consonant",119.58,2.08127528,0.951884,0.290454004,7.16559332690214,"dearth","low","high","high","high","B",637,6.45676965557216,0.00156985871271586
"108",7,108,"hickory","List2","car",8,6,6,1,491,491,"unrelated","career","car","eer",6,3,3,"opaque","vowel",274.916,2.440776885,57.1725,1.764717728,1.383097617,"career","low","low","high","low","A",491,6.19644412779452,0.00203665987780041
"109",7,109,"auditory","List2","rat",9,6,6,1,596,596,"unrelated","ratify","rat","ify",6,3,3,"opaque","vowel",8.68594,0.986141774,0.713913,0.233988773,4.214483273,"ratify","low","high","high","high","A",596,6.39024066706535,0.00167785234899329
"110",7,110,"testify","List2","fact",10,6,6,1,478,478,"unrelated","factory","fact","ory",7,3,4,"opaque","vowel",448.635,2.65286011,39.2652,1.604929861,1.65294457584216,"factory","low","low","high","high","A",478,6.16961073249146,0.00209205020920502
"111",7,111,"dearth","List2","pill",11,6,6,1,455,455,"unrelated","pillory","pill","ory",7,3,4,"opaque","vowel",13.8023,1.170329202,0.416449,0.151200942,7.740224226,"pillory","low","high","high","high","A",455,6.12029741895095,0.0021978021978022
"112",7,112,"career","List1","hick",12,6,6,1,559,559,"unrelated","hickory","hick","ory",7,3,4,"opaque","vowel",1.24935,0.352057037,1.13036,0.328452999,1.071864276,"hickory","low","low","high","low","B",559,6.3261494731551,0.00178890876565295
"113",7,113,"ratify","List1","audit",13,6,5,0,572,NA,"unrelated","auditory","audit","ory",8,3,5,"opaque","vowel",1.6063,0.416024404,0.356957,0.132566086,3.138241562,"auditory","low","high","high","high","B",591.400743331876,6.38249386431964,0.00169090081687441
"114",7,114,"factory","List1","test",14,6,6,1,630,630,"unrelated","testify","test","ify",7,3,4,"opaque","vowel",79.4228,1.905379189,5.23536,0.794861533,2.397120891,"testify","low","high","high","high","B",630,6.44571981938558,0.00158730158730159
"115",7,115,"boredom","List2","seed",15,6,6,1,475,475,"unrelated","seedling","seed","ling",8,4,4,"transparent","consonant",28.616,1.471526401,0.594928,0.202741082,7.258155965,"seedling","low","high","high","high","A",475,6.16331480403464,0.00210526315789474
"116",7,116,"tenth","List2","warm",16,6,6,1,473,473,"unrelated","warmth","warm","th",6,2,4,"transparent","consonant",94.177,1.978532012,24.987,1.414756146,1.398496848,"warmth","low","low","high","low","A",473,6.15909538849193,0.00211416490486258
"117",7,117,"freedom","List2","four",17,6,5,0,451,NA,"unrelated","fourth","four","th",6,2,4,"transparent","consonant",319.714,2.506117918,45.274,1.665337042,1.504871298,"fourth","low","low","high","high","A",591.400743331876,6.38249386431964,0.00169090081687441
"118",7,118,"kingdom","List2","boy",18,6,6,1,419,419,"unrelated","boyhood","boy","hood",7,4,3,"transparent","consonant",223.871,2.351933451,4.52145,0.742053144,3.16949462,"boyhood","low","high","high","high","A",419,6.03787091992214,0.00238663484486874
"119",7,119,"sapling","List2","eleven",19,6,5,0,589,NA,"unrelated","eleventh","eleven","th",8,2,6,"transparent","consonant",40.0386,1.613192537,4.69993,0.755869522,2.134220904,"eleventh","low","low","high","high","A",591.400743331876,6.38249386431964,0.00169090081687441
"120",7,120,"earthling","List2","six",20,6,6,1,688,688,"unrelated","sixth","six","th",5,2,3,"transparent","consonant",203.227,2.310113158,16.063,1.232055391,1.875007547,"sixth","low","low","high","high","A",688,6.53378883793334,0.00145348837209302
"121",7,121,"growth","List2","duck",21,6,6,1,484,484,"unrelated","duckling","duck","ling",8,4,4,"transparent","consonant",9.8758,1.036461213,0.297464,0.113095317,9.164492672,"duckling","low","high","high","high","A",484,6.18208490671663,0.00206611570247934
"122",7,122,"serfdom","List2","star",22,6,6,1,468,468,"unrelated","stardom","star","dom",7,3,4,"transparent","consonant",54.6738,1.745650865,1.13036,0.328452999,5.314766085,"stardom","low","high","high","high","A",468,6.14846829591765,0.00213675213675214
"123",7,123,"health","List2","man",23,6,6,1,522,522,"unrelated","manhood","man","hood",7,4,3,"transparent","consonant",1024.11,3.01077047,6.06826,0.849312516,3.5449500740138,"manhood","low","high","high","high","A",522,6.25766758788264,0.00191570881226054
"124",7,124,"seedling","List1","bore",24,6,6,1,932,932,"unrelated","boredom","bore","dom",7,3,4,"transparent","consonant",28.497,1.469777848,15.2301,1.210321196,1.214370079,"boredom","low","low","high","low","B",932,6.83733281468559,0.00107296137339056
"125",7,125,"warmth","List1","ten",25,6,6,1,674,674,"unrelated","tenth","ten","th",5,2,3,"transparent","consonant",219.647,2.343698027,10.5302,1.061836841,2.207211065,"tenth","low","low","high","high","B",674,6.51323011091231,0.00148367952522255
"126",7,126,"fourth","List1","free",26,6,6,1,466,466,"unrelated","freedom","free","dom",7,3,4,"transparent","consonant",209.652,2.323565587,101.673,2.011456252,1.155165857,"freedom","low","low","high","low","B",466,6.14418563412565,0.00214592274678112
"127",7,127,"boyhood","List1","king",27,6,6,1,501,501,"unrelated","kingdom","king","dom",7,3,4,"transparent","consonant",91.7378,1.967256789,28.973,1.476730214,1.332170744,"kingdom","low","low","high","low","B",501,6.21660610108486,0.00199600798403194
"128",7,128,"eleventh","List1","sap",28,6,6,1,564,564,"unrelated","sapling","sap","ling",7,4,3,"transparent","consonant",2.79616,0.579344509,0.713913,0.233988773,2.475950017,"sapling","low","high","high","high","B",564,6.33505425149806,0.00177304964539007
"129",7,129,"sixth","List1","earth",29,6,6,1,495,495,"unrelated","earthling","earth","ling",9,4,5,"transparent","consonant",161.999,2.21218494,0.237971,0.092710471,23.861219690479,"earthling","low","high","high","high","B",495,6.20455776256869,0.00202020202020202
"130",7,130,"duckling","List1","grow",30,6,6,1,494,494,"unrelated","growth","grow","th",6,2,4,"transparent","consonant",95.4264,1.984195953,121.841,2.089343343,0.949674432,"growth","low","low","low","low","B",494,6.20253551718792,0.00202429149797571
"131",7,131,"stardom","List1","serf",31,6,5,0,606,NA,"unrelated","serfdom","serf","dom",7,3,4,"transparent","consonant",0.356957,0.132566086,0.237971,0.092710471,1.429893335,"serfdom","low","low","high","low","B",591.400743331876,6.38249386431964,0.00169090081687441
"132",7,132,"manhood","List1","heal",32,6,6,1,517,517,"unrelated","health","heal","th",6,2,4,"transparent","consonant",4.75942,0.76037875,130.587,2.119212986,0.35880242083473,"health","low","low","low","low","B",517,6.24804287450843,0.00193423597678917
"133",7,133,"classify","List2","cash",33,6,6,1,454,454,"unrelated","cashier","cash","ier",7,3,4,"transparent","vowel",54.3169,1.742857834,2.20123,0.505316878,3.449039418,"cashier","low","high","high","high","A",454,6.11809719804135,0.00220264317180617
"134",7,134,"hotelier","List2","solid",34,6,6,1,512,512,"unrelated","solidify","solid","ify",8,3,5,"transparent","vowel",46.5233,1.67690659,0.475942,0.169069291,9.91845751622358,"solidify","low","high","high","high","A",512,6.23832462503951,0.001953125
"135",7,135,"marketeer","List2","fort",35,6,6,1,534,534,"unrelated","fortify","fort","ify",7,3,4,"transparent","vowel",23.7971,1.394400893,1.18986,0.340416351,4.09616308,"fortify","low","high","high","high","A",534,6.2803958389602,0.00187265917602996
"136",7,136,"justify","List2","profit",36,6,5,0,620,NA,"unrelated","profiteer","profit","eer",9,3,6,"transparent","vowel",36.945,1.579154557,0.118986,0.048824653,32.343384492,"profiteer","low","high","high","high","A",591.400743331876,6.38249386431964,0.00169090081687441
"137",7,137,"courtier","List2","direct",37,6,6,1,653,653,"unrelated","directory","direct","ory",9,3,6,"transparent","vowel",94.2365,1.978803426,3.98601,0.697753145,2.835964893,"directory","low","high","high","high","A",653,6.48157712927643,0.00153139356814701
"138",7,138,"nullify","List2","arm",38,6,6,1,505,505,"unrelated","armory","arm","ory",6,3,3,"transparent","vowel",111.132,2.049729568,0,0,2049729568,"armory","low","high","high","high","A",505,6.22455842927536,0.00198019801980198
"139",7,139,"racketeer","List2","acid",39,6,6,1,592,592,"unrelated","acidify","acid","ify",7,3,4,"transparent","vowel",21.8933,1.359708399,0,0,1359708399,"acidify","low","high","high","high","A",592,6.38350663488401,0.00168918918918919
"140",7,140,"musketeer","List2","front",40,6,6,1,531,531,"unrelated","frontier","front","ier",8,3,5,"transparent","vowel",263.077,2.421730578,13.0884,1.148861674,2.107939216,"frontier","low","low","high","high","A",531,6.27476202124194,0.00188323917137476
"141",7,141,"clothier","List2","humid",41,6,6,1,614,614,"unrelated","humidify","humid","ify",8,3,5,"transparent","vowel",3.03413,0.605749889,0.237971,0.092710471,6.533780661,"humidify","low","high","high","high","A",614,6.41999492814714,0.00162866449511401
"142",7,142,"cashier","List1","class",42,6,6,1,494,494,"unrelated","classify","class","ify",8,3,5,"transparent","vowel",203.287,2.310240731,1.6658,0.425827564,5.425296343,"classify","low","high","high","high","B",494,6.20253551718792,0.00202429149797571
"143",7,143,"solidify","List1","hotel",43,6,6,1,486,486,"unrelated","hotelier","hotel","ier",8,3,5,"transparent","vowel",125.589,2.102395969,0.178478,0.071321479,29.47773895,"hotelier","low","high","high","high","B",486,6.18620862390049,0.00205761316872428
"144",7,144,"fortify","List1","market",44,6,6,1,459,459,"unrelated","marketeer","market","eer",9,3,6,"transparent","vowel",132.55,2.125643892,0.178478,0.071321479,29.803698577,"marketeer","low","high","high","high","B",459,6.12905021006055,0.00217864923747277
"145",7,145,"profiteer","List1","just",45,6,6,1,463,463,"unrelated","justify","just","ify",7,3,4,"transparent","vowel",1236.44,3.09252415,16.42,1.241048151,2.49186475562312,"justify","low","high","high","high","B",463,6.13772705408623,0.00215982721382289
"146",7,146,"directory","List1","court",46,6,6,1,580,580,"unrelated","courtier","court","ier",8,3,5,"transparent","vowel",128.088,2.110885872,1.6063,0.416024404,5.073947217,"courtier","low","high","high","high","B",580,6.36302810354046,0.00172413793103448
"147",7,147,"armory","List1","null",47,6,6,1,640,640,"unrelated","nullify","null","ify",7,3,4,"transparent","vowel",0.356957,0.132566086,0.713913,0.233988773,0.566548915,"nullify","low","low","low","low","B",640,6.46146817635372,0.0015625
"148",7,148,"acidify","List1","racket",48,6,6,1,620,620,"unrelated","racketeer","racket","eer",9,3,6,"transparent","vowel",11.7201,1.104490526,0.0594928,0.02509801,44.0070938689126,"racketeer","low","high","high","high","B",620,6.42971947803914,0.00161290322580645
"149",7,149,"frontier","List1","musket",49,6,6,1,530,530,"unrelated","musketeer","musket","eer",9,3,6,"transparent","vowel",0.65442,0.218645772,0,0,218645772,"musketeer","low","high","high","high","B",530,6.27287700654617,0.00188679245283019
"150",7,150,"humidify","List1","cloth",50,6,6,1,558,558,"unrelated","clothier","cloth","ier",8,3,5,"transparent","vowel",47.2967,1.683917457,0,0,1683917457,"clothier","low","high","high","high","B",558,6.32435896238131,0.0017921146953405
"151",7,151,"imply","List2","wit",51,6,6,1,564,564,"unrelated","witness","wit","ness",7,4,3,"opaque","consonant",11.0062,1.079405574,23.7376,1.393357563,0.774679524,"witness","high","low","low","low","A",564,6.33505425149806,0.00177304964539007
"152",7,152,"witness","List1","imp",52,6,5,0,871,NA,"unrelated","imply","imp","ly",5,2,3,"opaque","consonant",1.01138,0.303494127,12.1365,1.11847967,0.271345233059672,"imply","high","low","low","low","B",591.400743331876,6.38249386431964,0.00169090081687441
"153",7,153,"flower","List2","list",53,6,6,1,654,654,"unrelated","listen","list","en",6,2,4,"opaque","vowel",74.6634,1.878885853,75.4368,1.883302497,0.99765484,"listen","high","low","low","low","A",654,6.4831073514572,0.00152905198776758
"154",7,154,"traitor","List2","past",54,6,6,1,488,488,"unrelated","pastor","past","or",6,2,4,"opaque","vowel",273.786,2.438994602,3.62906,0.66549281,3.66494507782143,"pastor","high","high","high","high","A",488,6.19031540585315,0.00204918032786885
"155",7,155,"limber","List2","ban",55,6,5,0,714,NA,"unrelated","banish","ban","ish",6,3,3,"opaque","vowel",13.6833,1.166823672,2.14174,0.497170241,2.346929831,"banish","high","low","high","high","A",591.400743331876,6.38249386431964,0.00169090081687441
"156",7,156,"hunger","List2","heath",56,6,6,1,432,432,"unrelated","heathen","heath","en",7,2,5,"opaque","vowel",13.6238,1.165060239,2.55819,0.551229135,2.113567957,"heathen","high","low","high","high","A",432,6.06842558824411,0.00231481481481481
"157",7,157,"pollen","List2","mist",57,6,6,1,522,522,"unrelated","mister","mist","er",6,2,4,"opaque","vowel",13.8023,1.170329202,7.02015,0.904182491,1.294350656,"mister","high","low","high","low","A",522,6.25766758788264,0.00191570881226054
"158",7,158,"vanish","List2","rapt",58,6,6,1,606,606,"unrelated","raptor","rapt","or",6,2,4,"opaque","vowel",2.14174,0.497170241,0,0,497170241,"raptor","high","high","high","high","A",606,6.40687998606931,0.00165016501650165
"159",7,159,"listen","List1","flow",59,6,5,0,498,NA,"unrelated","flower","flow","er",6,2,4,"opaque","vowel",41.9424,1.632886313,27.9616,1.461822551,1.11702088,"flower","high","low","high","low","B",591.400743331876,6.38249386431964,0.00169090081687441
"160",7,160,"pastor","List1","trait",60,6,6,1,620,620,"unrelated","traitor","trait","or",7,2,5,"opaque","vowel",3.2721,0.63064141,6.18725,0.856562752,0.736246594649674,"traitor","high","low","low","low","B",620,6.42971947803914,0.00161290322580645
"161",7,161,"banish","List1","limb",61,6,6,1,609,609,"unrelated","limber","limb","er",6,2,4,"opaque","vowel",7.91254,0.950001492,0.773406,0.248808173,3.818208529,"limber","high","high","high","high","B",609,6.4118182677099,0.00164203612479475
"162",7,162,"heathen","List1","hung",62,6,6,1,511,511,"unrelated","hunger","hung","er",6,2,4,"opaque","vowel",58.6004,1.775249174,25.2249,1.418713841,1.251308841,"hunger","high","low","high","low","B",511,6.2363695902037,0.00195694716242661
"163",7,163,"mister","List1","poll",63,6,6,1,575,575,"unrelated","pollen","poll","en",6,2,4,"opaque","vowel",8.38848,0.972595285,5.88978,0.838205355,1.160330554,"pollen","high","low","high","low","B",575,6.35437004079735,0.00173913043478261
"164",7,164,"raptor","List1","van",64,6,6,1,478,478,"unrelated","vanish","van","ish",6,3,3,"opaque","vowel",56.3396,1.758454659,6.18725,0.856562752,2.052919827,"vanish","high","low","high","high","B",478,6.16961073249146,0.00209205020920502
"165",7,165,"weakness","List2","help",65,6,6,1,671,671,"unrelated","helpless","help","less",8,4,4,"transparent","consonant",375.221,2.575443033,19.3351,1.308246312,1.968622428,"helpless","high","low","high","high","A",671,6.50876913697168,0.0014903129657228
"166",7,166,"greatly","List2","chief",66,6,6,1,629,629,"unrelated","chiefly","chief","ly",7,2,5,"transparent","consonant",105.54,2.027512692,11.3036,1.090032203,1.860048432,"chiefly","high","low","high","high","A",629,6.44413125670044,0.00158982511923688
"167",7,167,"illness","List2","strong",67,6,6,1,487,487,"unrelated","strongly","strong","ly",8,2,6,"transparent","consonant",167.948,2.227753055,42.3588,1.637077254,1.360811195,"strongly","high","low","high","low","A",487,6.18826412308259,0.00205338809034908
"168",7,168,"calmness","List2","deaf",68,6,6,1,768,768,"unrelated","deafness","deaf","ness",8,4,4,"transparent","consonant",9.51884,1.021967849,2.08225,0.488867861,2.090478693,"deafness","high","low","high","high","A",768,6.64378973314767,0.00130208333333333
"169",7,169,"deathlike","List2","dead",69,6,6,1,446,446,"unrelated","deadly","dead","ly",6,2,4,"transparent","consonant",190.079,2.28121296,13.6833,1.166823672,1.95506228814746,"deadly","high","low","high","high","A",446,6.10031895202006,0.00224215246636771
"170",7,170,"waiflike","List2","sick",70,6,6,1,511,511,"unrelated","sickness","sick","ness",8,4,4,"transparent","consonant",70.6179,1.855021582,16.4795,1.242529006,1.492940263,"sickness","high","low","high","low","A",511,6.2363695902037,0.00195694716242661
"171",7,171,"highly","List2","worth",71,6,NA,0,NA,NA,"unrelated","worthless","worth","less",9,4,5,"transparent","consonant",99.1149,2.000498718,5.17587,0.790698146,2.530040984,"worthless","high","high","high","high","A",591.400743331876,6.38249386431964,0.00169090081687441
"172",7,172,"stainless","List2","thank",72,6,6,1,601,601,"unrelated","thankless","thank","less",9,4,5,"transparent","consonant",69.4875,1.848112108,0.65442,0.218645772,8.452539844,"thankless","high","high","high","high","A",601,6.39859493453521,0.00166389351081531
"173",7,173,"warlike","List2","tooth",73,6,6,1,505,505,"unrelated","toothless","tooth","less",9,NA,5,"transparent","consonant",13.5643,1.163289616,1.84428,0.453972347,2.562468003,"toothless","high","high","high","high","A",505,6.22455842927536,0.00198019801980198
"174",7,174,"helpless","List1","weak",74,6,6,1,561,561,"unrelated","weakness","weak","ness",8,4,4,"transparent","consonant",47.9512,1.689763343,21.8338,1.358578193,1.243773344,"weakness","high","low","high","low","B",561,6.3297209055227,0.0017825311942959
"175",7,175,"chiefly","List1","great",75,6,6,1,369,369,"unrelated","greatly","great","ly",7,2,5,"transparent","consonant",639.726,2.806672348,40.3361,1.616329499,1.736448136,"greatly","high","low","high","high","B",369,5.91079664404053,0.002710027100271
"176",7,176,"strongly","List1","ill",76,6,6,1,576,576,"unrelated","illness","ill","ness",7,4,3,"transparent","consonant",56.5181,1.759804532,35.3982,1.561079907,1.127299457,"illness","high","low","high","low","B",576,6.35610766069589,0.00173611111111111
"177",7,177,"deafness","List1","calm",77,6,6,1,517,517,"unrelated","calmness","calm","ness",8,4,4,"transparent","consonant",41.288,1.626217146,1.01138,0.303494127,5.358315025,"calmness","high","high","high","high","B",517,6.24804287450843,0.00193423597678917
"178",7,178,"deadly","List1","death",78,6,6,1,388,388,"unrelated","deathlike","death","like",9,4,5,"transparent","consonant",233.152,2.369497872,0,0,2369497872,"deathlike","high","high","high","high","B",388,5.96100533962327,0.00257731958762887
"179",7,179,"sickness","List1","waif",79,6,5,0,634,NA,"unrelated","waiflike","waif","like",8,4,4,"transparent","consonant",0.773406,0.248808173,0,0,248808173,"waiflike","high","high","high","high","B",591.400743331876,6.38249386431964,0.00169090081687441
"180",7,180,"worthless","List1","high",80,6,6,1,626,626,"unrelated","highly","high","ly",6,2,4,"transparent","consonant",369.866,2.56921702,93.8796,1.977172845,1.2994397658241,"highly","high","low","high","low","B",626,6.4393503711001,0.00159744408945687
"181",7,181,"thankless","List1","stain",81,6,6,1,495,495,"unrelated","stainless","stain","less",9,4,5,"transparent","consonant",7.3771,0.9230937,2.37971,0.528879437,1.7453764197957,"stainless","high","low","high","high","B",495,6.20455776256869,0.00202020202020202
"182",7,182,"toothless","List1","war",82,6,6,1,419,419,"unrelated","warlike","war","like",7,4,3,"transparent","consonant",340.12,2.532907183,1.6063,0.416024404,6.088362011,"warlike","high","high","high","high","B",419,6.03787091992214,0.00238663484486874
"183",7,183,"drawer","List2","tract",83,6,5,0,580,NA,"unrelated","tractor","tract","or",7,2,5,"transparent","vowel",3.45058,0.648416612,7.25812,0.916881189,0.707198074,"tractor","high","low","low","low","A",591.400743331876,6.38249386431964,0.00169090081687441
"184",7,184,"greenish","List2","sculpt",84,6,6,1,611,611,"unrelated","sculptor","sculpt","or",8,2,6,"transparent","vowel",0,0,3.62906,0.66549281,0,"sculptor","high","low","low","low","A",611,6.4150969591716,0.0016366612111293
"185",7,185,"bookish","List2","self",85,6,6,1,518,518,"unrelated","selfish","self","ish",7,3,4,"transparent","vowel",38.9083,1.601063228,12.196,1.120442307,1.428956419,"selfish","high","low","high","low","A",518,6.24997524225948,0.00193050193050193
"186",7,186,"drunken","List2","fresh",86,6,6,1,594,594,"unrelated","freshen","fresh","en",7,2,5,"transparent","vowel",73.8305,1.874078647,0.475942,0.169069291,11.084677914,"freshen","high","high","high","high","A",594,6.38687931936265,0.00168350168350168
"187",7,187,"foolish","List2","debt",87,6,6,1,596,596,"unrelated","debtor","debt","or",6,2,4,"transparent","vowel",26.1768,1.434198318,0.951884,0.290454004,4.937781175,"debtor","high","high","high","high","A",596,6.39024066706535,0.00167785234899329
"188",7,188,"freakish","List2","pray",88,6,6,1,500,500,"unrelated","prayer","pray","er",6,2,4,"transparent","vowel",15.1707,1.20872882,20.5845,1.334141993,0.90599713181654,"prayer","high","low","low","low","A",500,6.21460809842219,0.002
"189",7,189,"flaxen","List2","profess",89,6,6,1,441,441,"unrelated","professor","profess","or",9,2,7,"transparent","vowel",0.951884,0.290454004,74.9609,1.880590102,0.154448332,"professor","high","low","low","low","A",441,6.08904487544685,0.00226757369614512
"190",7,190,"hunter","List2","soft",90,6,6,1,498,498,"unrelated","soften","soft","en",6,2,4,"transparent","vowel",81.0886,1.914282849,4.04551,0.702905071,2.723387446,"soften","high","high","high","high","A",498,6.21060007702465,0.00200803212851406
"191",7,191,"sailor","List2","fast",91,6,6,1,509,509,"unrelated","fasten","fast","en",6,2,4,"transparent","vowel",102.982,2.016958166,2.85565,0.586097604,3.441334939,"fasten","high","high","high","high","A",509,6.23244801655052,0.00196463654223969
"192",7,192,"tractor","List1","draw",92,6,6,1,431,431,"unrelated","drawer","draw","er",6,2,4,"transparent","vowel",58.7194,1.776115436,16.0036,1.23054088,1.44336158466888,"drawer","high","low","high","low","B",431,6.06610809010375,0.00232018561484919
"193",7,193,"sculptor","List1","green",93,6,6,1,523,523,"unrelated","greenish","green","ish",8,3,5,"transparent","vowel",154.027,2.190407343,2.73667,0.572484745,3.826140973,"greenish","high","high","high","high","B",523,6.25958146406492,0.00191204588910134
"194",7,194,"selfish","List1","book",94,6,6,1,676,676,"unrelated","bookish","book","ish",7,3,4,"transparent","vowel",252.249,2.403547739,1.6063,0.416024404,5.777420051,"bookish","high","high","high","high","B",676,6.51619307604296,0.0014792899408284
"195",7,195,"freshen","List1","drunk",95,6,6,1,448,448,"unrelated","drunken","drunk","en",7,2,5,"transparent","vowel",38.4918,1.596506929,8.21,0.96425963,1.65568160034276,"drunken","high","low","high","high","B",448,6.10479323241498,0.00223214285714286
"196",7,196,"debtor","List1","fool",96,6,6,1,542,542,"unrelated","foolish","fool","ish",7,3,4,"transparent","vowel",37.4804,1.585239578,20.525,1.33294316,1.18927770094167,"foolish","high","low","high","low","B",542,6.29526600143965,0.0018450184501845
"197",7,197,"prayer","List1","freak",97,6,6,1,491,491,"unrelated","freakish","freak","ish",8,3,5,"transparent","vowel",5.35435,0.803071132,0.713913,0.233988773,3.432092567,"freakish","high","high","high","high","B",491,6.19644412779452,0.00203665987780041
"198",7,198,"professor","List1","flax",98,6,6,1,492,492,"unrelated","flaxen","flax","en",6,2,4,"transparent","vowel",2.20123,0.505316878,0.118986,0.048824653,10.349625376,"flaxen","high","high","high","high","B",492,6.19847871649231,0.00203252032520325
"199",7,199,"soften","List1","hunt",99,6,6,1,652,652,"unrelated","hunter","hunt","er",6,2,4,"transparent","vowel",22.9642,1.379562935,11.8391,1.108534581,1.244492465,"hunter","high","low","high","low","B",652,6.48004456192665,0.00153374233128834
"200",7,200,"fasten","List1","sail",100,6,6,1,640,640,"unrelated","sailor","sail","or",6,2,4,"transparent","vowel",8.21,0.96425963,5.88978,0.838205355,1.15038590853385,"sailor","high","low","high","low","B",640,6.46146817635372,0.0015625
"201",8,1,"breadth","List1","bread",1,6,6,1,618,618,"related","breadth","bread","th",7,2,5,"opaque","consonant",76.9836,1.89200328,4.40246,0.73259156,2.58261681,"breadth","low","high","high","high","A",618,6.42648845745769,0.00161812297734628
"202",8,2,"hearth","List1","hear",2,6,6,1,645,645,"related","hearth","hear","th",6,2,4,"opaque","consonant",183.476,2.265939873,4.64044,0.751312984,3.01597326,"hearth","low","high","high","high","A",645,6.46925031679577,0.00155038759689922
"203",8,3,"youth","List1","you",3,6,6,1,531,531,"related","youth","you","th",5,2,3,"opaque","consonant",6334.67,3.801792548,63.4788,1.809416946,2.101114701,"youth","low","low","high","high","A",531,6.27476202124194,0.00188323917137476
"204",8,4,"kindling","List2","kind",4,6,6,1,406,406,"related","kindling","kind","ling",8,4,4,"opaque","consonant",409.846,2.613679063,0.951884,0.290454004,8.998598807,"kindling","low","high","high","high","B",406,6.00635315960173,0.00246305418719212
"205",8,5,"dumpling","List2","dump",5,6,6,1,835,835,"related","dumpling","dump","ling",8,4,4,"opaque","consonant",7.67457,0.938247956,0.356957,0.132566086,7.077586563,"dumpling","low","high","high","high","B",835,6.72743172485086,0.00119760479041916
"206",8,6,"random","List2","ran",6,6,6,1,483,483,"related","random","ran","dom",6,3,3,"opaque","consonant",116.606,2.070429479,18.2643,1.284753233,1.61153864,"random","low","low","high","high","B",483,6.18001665365257,0.0020703933747412
"207",8,7,"dearth","List2","dear",7,6,6,1,545,545,"related","dearth","dear","th",6,2,4,"opaque","consonant",119.58,2.08127528,0.951884,0.290454004,7.16559332690214,"dearth","low","high","high","high","B",545,6.30078579466324,0.0018348623853211
"208",8,8,"career","List1","car",8,6,6,1,694,694,"related","career","car","eer",6,3,3,"opaque","vowel",274.916,2.440776885,57.1725,1.764717728,1.383097617,"career","low","low","high","low","A",694,6.5424719605068,0.00144092219020173
"209",8,9,"ratify","List1","rat",9,6,6,1,584,584,"related","ratify","rat","ify",6,3,3,"opaque","vowel",8.68594,0.986141774,0.713913,0.233988773,4.214483273,"ratify","low","high","high","high","A",584,6.36990098282823,0.00171232876712329
"210",8,10,"factory","List1","fact",10,6,6,1,900,900,"related","factory","fact","ory",7,3,4,"opaque","vowel",448.635,2.65286011,39.2652,1.604929861,1.65294457584216,"factory","low","low","high","high","A",900,6.80239476332431,0.00111111111111111
"211",8,11,"pillory","List1","pill",11,6,6,1,720,720,"related","pillory","pill","ory",7,3,4,"opaque","vowel",13.8023,1.170329202,0.416449,0.151200942,7.740224226,"pillory","low","high","high","high","A",720,6.5792512120101,0.00138888888888889
"212",8,12,"hickory","List2","hick",12,6,6,1,448,448,"related","hickory","hick","ory",7,3,4,"opaque","vowel",1.24935,0.352057037,1.13036,0.328452999,1.071864276,"hickory","low","low","high","low","B",448,6.10479323241498,0.00223214285714286
"213",8,13,"auditory","List2","audit",13,6,6,1,647,647,"related","auditory","audit","ory",8,3,5,"opaque","vowel",1.6063,0.416024404,0.356957,0.132566086,3.138241562,"auditory","low","high","high","high","B",647,6.4723462945009,0.00154559505409583
"214",8,14,"testify","List2","test",14,6,6,1,481,481,"related","testify","test","ify",7,3,4,"opaque","vowel",79.4228,1.905379189,5.23536,0.794861533,2.397120891,"testify","low","high","high","high","B",481,6.17586727010576,0.00207900207900208
"215",8,15,"seedling","List1","seed",15,6,6,1,467,467,"related","seedling","seed","ling",8,4,4,"transparent","consonant",28.616,1.471526401,0.594928,0.202741082,7.258155965,"seedling","low","high","high","high","A",467,6.1463292576689,0.00214132762312634
"216",8,16,"warmth","List1","warm",16,6,6,1,492,492,"related","warmth","warm","th",6,2,4,"transparent","consonant",94.177,1.978532012,24.987,1.414756146,1.398496848,"warmth","low","low","high","low","A",492,6.19847871649231,0.00203252032520325
"217",8,17,"fourth","List1","four",17,6,6,1,638,638,"related","fourth","four","th",6,2,4,"transparent","consonant",319.714,2.506117918,45.274,1.665337042,1.504871298,"fourth","low","low","high","high","A",638,6.45833828334479,0.00156739811912226
"218",8,18,"boyhood","List1","boy",18,6,6,1,445,445,"related","boyhood","boy","hood",7,4,3,"transparent","consonant",223.871,2.351933451,4.52145,0.742053144,3.16949462,"boyhood","low","high","high","high","A",445,6.09807428216624,0.00224719101123596
"219",8,19,"eleventh","List1","eleven",19,6,6,1,574,574,"related","eleventh","eleven","th",8,2,6,"transparent","consonant",40.0386,1.613192537,4.69993,0.755869522,2.134220904,"eleventh","low","low","high","high","A",574,6.35262939631957,0.00174216027874564
"220",8,20,"sixth","List1","six",20,6,6,1,494,494,"related","sixth","six","th",5,2,3,"transparent","consonant",203.227,2.310113158,16.063,1.232055391,1.875007547,"sixth","low","low","high","high","A",494,6.20253551718792,0.00202429149797571
"221",8,21,"duckling","List1","duck",21,6,6,1,465,465,"related","duckling","duck","ling",8,4,4,"transparent","consonant",9.8758,1.036461213,0.297464,0.113095317,9.164492672,"duckling","low","high","high","high","A",465,6.14203740558736,0.0021505376344086
"222",8,22,"stardom","List1","star",22,6,6,1,439,439,"related","stardom","star","dom",7,3,4,"transparent","consonant",54.6738,1.745650865,1.13036,0.328452999,5.314766085,"stardom","low","high","high","high","A",439,6.08449941307517,0.00227790432801822
"223",8,23,"manhood","List1","man",23,6,6,1,505,505,"related","manhood","man","hood",7,4,3,"transparent","consonant",1024.11,3.01077047,6.06826,0.849312516,3.5449500740138,"manhood","low","high","high","high","A",505,6.22455842927536,0.00198019801980198
"224",8,24,"boredom","List2","bore",24,6,6,1,628,628,"related","boredom","bore","dom",7,3,4,"transparent","consonant",28.497,1.469777848,15.2301,1.210321196,1.214370079,"boredom","low","low","high","low","B",628,6.4425401664682,0.00159235668789809
"225",8,25,"tenth","List2","ten",25,6,6,1,470,470,"related","tenth","ten","th",5,2,3,"transparent","consonant",219.647,2.343698027,10.5302,1.061836841,2.207211065,"tenth","low","low","high","high","B",470,6.1527326947041,0.00212765957446809
"226",8,26,"freedom","List2","free",26,6,6,1,499,499,"related","freedom","free","dom",7,3,4,"transparent","consonant",209.652,2.323565587,101.673,2.011456252,1.155165857,"freedom","low","low","high","low","B",499,6.21260609575152,0.00200400801603206
"227",8,27,"kingdom","List2","king",27,6,6,1,741,741,"related","kingdom","king","dom",7,3,4,"transparent","consonant",91.7378,1.967256789,28.973,1.476730214,1.332170744,"kingdom","low","low","high","low","B",741,6.60800062529609,0.00134952766531714
"228",8,28,"sapling","List2","sap",28,6,6,1,587,587,"related","sapling","sap","ling",7,4,3,"transparent","consonant",2.79616,0.579344509,0.713913,0.233988773,2.475950017,"sapling","low","high","high","high","B",587,6.3750248198281,0.00170357751277683
"229",8,29,"earthling","List2","earth",29,6,6,1,474,474,"related","earthling","earth","ling",9,4,5,"transparent","consonant",161.999,2.21218494,0.237971,0.092710471,23.861219690479,"earthling","low","high","high","high","B",474,6.16120732169508,0.00210970464135021
"230",8,30,"growth","List2","grow",30,6,6,1,501,501,"related","growth","grow","th",6,2,4,"transparent","consonant",95.4264,1.984195953,121.841,2.089343343,0.949674432,"growth","low","low","low","low","B",501,6.21660610108486,0.00199600798403194
"231",8,31,"serfdom","List2","serf",31,6,6,1,605,605,"related","serfdom","serf","dom",7,3,4,"transparent","consonant",0.356957,0.132566086,0.237971,0.092710471,1.429893335,"serfdom","low","low","high","low","B",605,6.40522845803084,0.00165289256198347
"232",8,32,"health","List2","heal",32,6,6,1,598,598,"related","health","heal","th",6,2,4,"transparent","consonant",4.75942,0.76037875,130.587,2.119212986,0.35880242083473,"health","low","low","low","low","B",598,6.39359075395063,0.00167224080267559
"233",8,33,"cashier","List1","cash",33,6,6,1,631,631,"related","cashier","cash","ier",7,3,4,"transparent","vowel",54.3169,1.742857834,2.20123,0.505316878,3.449039418,"cashier","low","high","high","high","A",631,6.44730586254121,0.00158478605388273
"234",8,34,"solidify","List1","solid",34,6,6,1,484,484,"related","solidify","solid","ify",8,3,5,"transparent","vowel",46.5233,1.67690659,0.475942,0.169069291,9.91845751622358,"solidify","low","high","high","high","A",484,6.18208490671663,0.00206611570247934
"235",8,35,"fortify","List1","fort",35,6,6,1,856,856,"related","fortify","fort","ify",7,3,4,"transparent","vowel",23.7971,1.394400893,1.18986,0.340416351,4.09616308,"fortify","low","high","high","high","A",856,6.75227037614174,0.00116822429906542
"236",8,36,"profiteer","List1","profit",36,6,6,1,607,607,"related","profiteer","profit","eer",9,3,6,"transparent","vowel",36.945,1.579154557,0.118986,0.048824653,32.343384492,"profiteer","low","high","high","high","A",607,6.4085287910595,0.00164744645799012
"237",8,37,"directory","List1","direct",37,6,6,1,652,652,"related","directory","direct","ory",9,3,6,"transparent","vowel",94.2365,1.978803426,3.98601,0.697753145,2.835964893,"directory","low","high","high","high","A",652,6.48004456192665,0.00153374233128834
"238",8,38,"armory","List1","arm",38,6,6,1,616,616,"related","armory","arm","ory",6,3,3,"transparent","vowel",111.132,2.049729568,0,0,2049729568,"armory","low","high","high","high","A",616,6.42324696353352,0.00162337662337662
"239",8,39,"acidify","List1","acid",39,6,6,1,642,642,"related","acidify","acid","ify",7,3,4,"transparent","vowel",21.8933,1.359708399,0,0,1359708399,"acidify","low","high","high","high","A",642,6.46458830368996,0.00155763239875389
"240",8,40,"frontier","List1","front",40,6,6,1,667,667,"related","frontier","front","ier",8,3,5,"transparent","vowel",263.077,2.421730578,13.0884,1.148861674,2.107939216,"frontier","low","low","high","high","A",667,6.50279004591562,0.00149925037481259
"241",8,41,"humidify","List1","humid",41,6,6,1,607,607,"related","humidify","humid","ify",8,3,5,"transparent","vowel",3.03413,0.605749889,0.237971,0.092710471,6.533780661,"humidify","low","high","high","high","A",607,6.4085287910595,0.00164744645799012
"242",8,42,"classify","List2","class",42,6,6,1,663,663,"related","classify","class","ify",8,3,5,"transparent","vowel",203.287,2.310240731,1.6658,0.425827564,5.425296343,"classify","low","high","high","high","B",663,6.49677499018586,0.00150829562594268
"243",8,43,"hotelier","List2","hotel",43,6,6,1,733,733,"related","hotelier","hotel","ier",8,3,5,"transparent","vowel",125.589,2.102395969,0.178478,0.071321479,29.47773895,"hotelier","low","high","high","high","B",733,6.59714570188665,0.00136425648021828
"244",8,44,"marketeer","List2","market",44,6,6,1,511,511,"related","marketeer","market","eer",9,3,6,"transparent","vowel",132.55,2.125643892,0.178478,0.071321479,29.803698577,"marketeer","low","high","high","high","B",511,6.2363695902037,0.00195694716242661
"245",8,45,"justify","List2","just",45,6,6,1,462,462,"related","justify","just","ify",7,3,4,"transparent","vowel",1236.44,3.09252415,16.42,1.241048151,2.49186475562312,"justify","low","high","high","high","B",462,6.13556489108174,0.00216450216450216
"246",8,46,"courtier","List2","court",46,6,6,1,481,481,"related","courtier","court","ier",8,3,5,"transparent","vowel",128.088,2.110885872,1.6063,0.416024404,5.073947217,"courtier","low","high","high","high","B",481,6.17586727010576,0.00207900207900208
"247",8,47,"nullify","List2","null",47,6,6,1,834,834,"related","nullify","null","ify",7,3,4,"transparent","vowel",0.356957,0.132566086,0.713913,0.233988773,0.566548915,"nullify","low","low","low","low","B",834,6.72623340235875,0.00119904076738609
"248",8,48,"racketeer","List2","racket",48,6,6,1,484,484,"related","racketeer","racket","eer",9,3,6,"transparent","vowel",11.7201,1.104490526,0.0594928,0.02509801,44.0070938689126,"racketeer","low","high","high","high","B",484,6.18208490671663,0.00206611570247934
"249",8,49,"musketeer","List2","musket",49,6,6,1,577,577,"related","musketeer","musket","eer",9,3,6,"transparent","vowel",0.65442,0.218645772,0,0,218645772,"musketeer","low","high","high","high","B",577,6.3578422665081,0.00173310225303293
"250",8,50,"clothier","List2","cloth",50,6,6,1,696,696,"related","clothier","cloth","ier",8,3,5,"transparent","vowel",47.2967,1.683917457,0,0,1683917457,"clothier","low","high","high","high","B",696,6.54534966033442,0.0014367816091954
"251",8,51,"witness","List1","wit",51,6,6,1,729,729,"related","witness","wit","ness",7,4,3,"opaque","consonant",11.0062,1.079405574,23.7376,1.393357563,0.774679524,"witness","high","low","low","low","A",729,6.59167373200866,0.00137174211248285
"252",8,52,"imply","List2","imp",52,6,6,1,669,669,"related","imply","imp","ly",5,2,3,"opaque","consonant",1.01138,0.303494127,12.1365,1.11847967,0.271345233059672,"imply","high","low","low","low","B",669,6.50578406012823,0.00149476831091181
"253",8,53,"listen","List1","list",53,6,6,1,516,516,"related","listen","list","en",6,2,4,"opaque","vowel",74.6634,1.878885853,75.4368,1.883302497,0.99765484,"listen","high","low","low","low","A",516,6.24610676548156,0.00193798449612403
"254",8,54,"pastor","List1","past",54,6,5,0,720,NA,"related","pastor","past","or",6,2,4,"opaque","vowel",273.786,2.438994602,3.62906,0.66549281,3.66494507782143,"pastor","high","high","high","high","A",591.400743331876,6.38249386431964,0.00169090081687441
"255",8,55,"banish","List1","ban",55,6,6,1,634,634,"related","banish","ban","ish",6,3,3,"opaque","vowel",13.6833,1.166823672,2.14174,0.497170241,2.346929831,"banish","high","low","high","high","A",634,6.45204895443723,0.00157728706624606
"256",8,56,"heathen","List1","heath",56,6,6,1,1044,1044,"related","heathen","heath","en",7,2,5,"opaque","vowel",13.6238,1.165060239,2.55819,0.551229135,2.113567957,"heathen","high","low","high","high","A",1044,6.95081476844258,0.000957854406130268
"257",8,57,"mister","List1","mist",57,6,6,1,655,655,"related","mister","mist","er",6,2,4,"opaque","vowel",13.8023,1.170329202,7.02015,0.904182491,1.294350656,"mister","high","low","high","low","A",655,6.48463523563525,0.00152671755725191
"258",8,58,"raptor","List1","rapt",58,6,6,1,930,930,"related","raptor","rapt","or",6,2,4,"opaque","vowel",2.14174,0.497170241,0,0,497170241,"raptor","high","high","high","high","A",930,6.8351845861473,0.0010752688172043
"259",8,59,"flower","List2","flow",59,6,6,1,611,611,"related","flower","flow","er",6,2,4,"opaque","vowel",41.9424,1.632886313,27.9616,1.461822551,1.11702088,"flower","high","low","high","low","B",611,6.4150969591716,0.0016366612111293
"260",8,60,"traitor","List2","trait",60,6,6,1,589,589,"related","traitor","trait","or",7,2,5,"opaque","vowel",3.2721,0.63064141,6.18725,0.856562752,0.736246594649674,"traitor","high","low","low","low","B",589,6.37842618365159,0.00169779286926995
"261",8,61,"limber","List2","limb",61,6,6,1,556,556,"related","limber","limb","er",6,2,4,"opaque","vowel",7.91254,0.950001492,0.773406,0.248808173,3.818208529,"limber","high","high","high","high","B",556,6.32076829425058,0.00179856115107914
"262",8,62,"hunger","List2","hung",62,6,6,1,606,606,"related","hunger","hung","er",6,2,4,"opaque","vowel",58.6004,1.775249174,25.2249,1.418713841,1.251308841,"hunger","high","low","high","low","B",606,6.40687998606931,0.00165016501650165
"263",8,63,"pollen","List2","poll",63,6,5,0,889,NA,"related","pollen","poll","en",6,2,4,"opaque","vowel",8.38848,0.972595285,5.88978,0.838205355,1.160330554,"pollen","high","low","high","low","B",591.400743331876,6.38249386431964,0.00169090081687441
"264",8,64,"vanish","List2","van",64,6,6,1,589,589,"related","vanish","van","ish",6,3,3,"opaque","vowel",56.3396,1.758454659,6.18725,0.856562752,2.052919827,"vanish","high","low","high","high","B",589,6.37842618365159,0.00169779286926995
"265",8,65,"helpless","List1","help",65,6,6,1,497,497,"related","helpless","help","less",8,4,4,"transparent","consonant",375.221,2.575443033,19.3351,1.308246312,1.968622428,"helpless","high","low","high","high","A",497,6.20859002609663,0.00201207243460765
"266",8,66,"chiefly","List1","chief",66,6,6,1,562,562,"related","chiefly","chief","ly",7,2,5,"transparent","consonant",105.54,2.027512692,11.3036,1.090032203,1.860048432,"chiefly","high","low","high","high","A",562,6.33150184989369,0.00177935943060498
"267",8,67,"strongly","List1","strong",67,6,6,1,543,543,"related","strongly","strong","ly",8,2,6,"transparent","consonant",167.948,2.227753055,42.3588,1.637077254,1.360811195,"strongly","high","low","high","low","A",543,6.29710931993394,0.00184162062615101
"268",8,68,"deafness","List1","deaf",68,6,6,1,407,407,"related","deafness","deaf","ness",8,4,4,"transparent","consonant",9.51884,1.021967849,2.08225,0.488867861,2.090478693,"deafness","high","low","high","high","A",407,6.00881318544259,0.00245700245700246
"269",8,69,"deadly","List1","dead",69,6,6,1,497,497,"related","deadly","dead","ly",6,2,4,"transparent","consonant",190.079,2.28121296,13.6833,1.166823672,1.95506228814746,"deadly","high","low","high","high","A",497,6.20859002609663,0.00201207243460765
"270",8,70,"sickness","List1","sick",70,6,6,1,671,671,"related","sickness","sick","ness",8,4,4,"transparent","consonant",70.6179,1.855021582,16.4795,1.242529006,1.492940263,"sickness","high","low","high","low","A",671,6.50876913697168,0.0014903129657228
"271",8,71,"worthless","List1","worth",71,6,6,1,477,477,"related","worthless","worth","less",9,4,5,"transparent","consonant",99.1149,2.000498718,5.17587,0.790698146,2.530040984,"worthless","high","high","high","high","A",477,6.16751649088834,0.00209643605870021
"272",8,72,"thankless","List1","thank",72,6,6,1,791,791,"related","thankless","thank","less",9,4,5,"transparent","consonant",69.4875,1.848112108,0.65442,0.218645772,8.452539844,"thankless","high","high","high","high","A",791,6.67329796776765,0.00126422250316056
"273",8,73,"toothless","List1","tooth",73,6,6,1,610,610,"related","toothless","tooth","less",9,NA,5,"transparent","consonant",13.5643,1.163289616,1.84428,0.453972347,2.562468003,"toothless","high","high","high","high","A",610,6.41345895716736,0.00163934426229508
"274",8,74,"weakness","List2","weak",74,6,6,1,663,663,"related","weakness","weak","ness",8,4,4,"transparent","consonant",47.9512,1.689763343,21.8338,1.358578193,1.243773344,"weakness","high","low","high","low","B",663,6.49677499018586,0.00150829562594268
"275",8,75,"greatly","List2","great",75,6,6,1,475,475,"related","greatly","great","ly",7,2,5,"transparent","consonant",639.726,2.806672348,40.3361,1.616329499,1.736448136,"greatly","high","low","high","high","B",475,6.16331480403464,0.00210526315789474
"276",8,76,"illness","List2","ill",76,6,6,1,464,464,"related","illness","ill","ness",7,4,3,"transparent","consonant",56.5181,1.759804532,35.3982,1.561079907,1.127299457,"illness","high","low","high","low","B",464,6.13988455222626,0.0021551724137931
"277",8,77,"calmness","List2","calm",77,6,6,1,382,382,"related","calmness","calm","ness",8,4,4,"transparent","consonant",41.288,1.626217146,1.01138,0.303494127,5.358315025,"calmness","high","high","high","high","B",382,5.94542060860658,0.00261780104712042
"278",8,78,"deathlike","List2","death",78,6,6,1,466,466,"related","deathlike","death","like",9,4,5,"transparent","consonant",233.152,2.369497872,0,0,2369497872,"deathlike","high","high","high","high","B",466,6.14418563412565,0.00214592274678112
"279",8,79,"waiflike","List2","waif",79,6,5,0,505,NA,"related","waiflike","waif","like",8,4,4,"transparent","consonant",0.773406,0.248808173,0,0,248808173,"waiflike","high","high","high","high","B",591.400743331876,6.38249386431964,0.00169090081687441
"280",8,80,"highly","List2","high",80,6,6,1,381,381,"related","highly","high","ly",6,2,4,"transparent","consonant",369.866,2.56921702,93.8796,1.977172845,1.2994397658241,"highly","high","low","high","low","B",381,5.9427993751267,0.0026246719160105
"281",8,81,"stainless","List2","stain",81,6,6,1,520,520,"related","stainless","stain","less",9,4,5,"transparent","consonant",7.3771,0.9230937,2.37971,0.528879437,1.7453764197957,"stainless","high","low","high","high","B",520,6.25382881157547,0.00192307692307692
"282",8,82,"warlike","List2","war",82,6,6,1,390,390,"related","warlike","war","like",7,4,3,"transparent","consonant",340.12,2.532907183,1.6063,0.416024404,6.088362011,"warlike","high","high","high","high","B",390,5.96614673912369,0.00256410256410256
"283",8,83,"tractor","List1","tract",83,6,5,0,586,NA,"related","tractor","tract","or",7,2,5,"transparent","vowel",3.45058,0.648416612,7.25812,0.916881189,0.707198074,"tractor","high","low","low","low","A",591.400743331876,6.38249386431964,0.00169090081687441
"284",8,84,"sculptor","List1","sculpt",84,6,6,1,689,689,"related","sculptor","sculpt","or",8,2,6,"transparent","vowel",0,0,3.62906,0.66549281,0,"sculptor","high","low","low","low","A",689,6.53524127101366,0.00145137880986938
"285",8,85,"selfish","List1","self",85,6,6,1,557,557,"related","selfish","self","ish",7,3,4,"transparent","vowel",38.9083,1.601063228,12.196,1.120442307,1.428956419,"selfish","high","low","high","low","A",557,6.32256523992728,0.00179533213644524
"286",8,86,"freshen","List1","fresh",86,6,6,1,477,477,"related","freshen","fresh","en",7,2,5,"transparent","vowel",73.8305,1.874078647,0.475942,0.169069291,11.084677914,"freshen","high","high","high","high","A",477,6.16751649088834,0.00209643605870021
"287",8,87,"debtor","List1","debt",87,6,6,1,653,653,"related","debtor","debt","or",6,2,4,"transparent","vowel",26.1768,1.434198318,0.951884,0.290454004,4.937781175,"debtor","high","high","high","high","A",653,6.48157712927643,0.00153139356814701
"288",8,88,"prayer","List1","pray",88,6,6,1,486,486,"related","prayer","pray","er",6,2,4,"transparent","vowel",15.1707,1.20872882,20.5845,1.334141993,0.90599713181654,"prayer","high","low","low","low","A",486,6.18620862390049,0.00205761316872428
"289",8,89,"professor","List1","profess",89,6,5,0,830,NA,"related","professor","profess","or",9,2,7,"transparent","vowel",0.951884,0.290454004,74.9609,1.880590102,0.154448332,"professor","high","low","low","low","A",591.400743331876,6.38249386431964,0.00169090081687441
"290",8,90,"soften","List1","soft",90,6,6,1,577,577,"related","soften","soft","en",6,2,4,"transparent","vowel",81.0886,1.914282849,4.04551,0.702905071,2.723387446,"soften","high","high","high","high","A",577,6.3578422665081,0.00173310225303293
"291",8,91,"fasten","List1","fast",91,6,6,1,704,704,"related","fasten","fast","en",6,2,4,"transparent","vowel",102.982,2.016958166,2.85565,0.586097604,3.441334939,"fasten","high","high","high","high","A",704,6.55677835615804,0.00142045454545455
"292",8,92,"drawer","List2","draw",92,6,6,1,613,613,"related","drawer","draw","er",6,2,4,"transparent","vowel",58.7194,1.776115436,16.0036,1.23054088,1.44336158466888,"drawer","high","low","high","low","B",613,6.41836493593621,0.00163132137030995
"293",8,93,"greenish","List2","green",93,6,6,1,561,561,"related","greenish","green","ish",8,3,5,"transparent","vowel",154.027,2.190407343,2.73667,0.572484745,3.826140973,"greenish","high","high","high","high","B",561,6.3297209055227,0.0017825311942959
"294",8,94,"bookish","List2","book",94,6,6,1,404,404,"related","bookish","book","ish",7,3,4,"transparent","vowel",252.249,2.403547739,1.6063,0.416024404,5.777420051,"bookish","high","high","high","high","B",404,6.00141487796115,0.00247524752475248
"295",8,95,"drunken","List2","drunk",95,6,6,1,576,576,"related","drunken","drunk","en",7,2,5,"transparent","vowel",38.4918,1.596506929,8.21,0.96425963,1.65568160034276,"drunken","high","low","high","high","B",576,6.35610766069589,0.00173611111111111
"296",8,96,"foolish","List2","fool",96,6,6,1,488,488,"related","foolish","fool","ish",7,3,4,"transparent","vowel",37.4804,1.585239578,20.525,1.33294316,1.18927770094167,"foolish","high","low","high","low","B",488,6.19031540585315,0.00204918032786885
"297",8,97,"freakish","List2","freak",97,6,6,1,442,442,"related","freakish","freak","ish",8,3,5,"transparent","vowel",5.35435,0.803071132,0.713913,0.233988773,3.432092567,"freakish","high","high","high","high","B",442,6.0913098820777,0.00226244343891403
"298",8,98,"flaxen","List2","flax",98,6,6,1,483,483,"related","flaxen","flax","en",6,2,4,"transparent","vowel",2.20123,0.505316878,0.118986,0.048824653,10.349625376,"flaxen","high","high","high","high","B",483,6.18001665365257,0.0020703933747412
"299",8,99,"hunter","List2","hunt",99,6,6,1,596,596,"related","hunter","hunt","er",6,2,4,"transparent","vowel",22.9642,1.379562935,11.8391,1.108534581,1.244492465,"hunter","high","low","high","low","B",596,6.39024066706535,0.00167785234899329
"300",8,100,"sailor","List2","sail",100,6,6,1,576,576,"related","sailor","sail","or",6,2,4,"transparent","vowel",8.21,0.96425963,5.88978,0.838205355,1.15038590853385,"sailor","high","low","high","low","B",576,6.35610766069589,0.00173611111111111
"301",8,101,"kindling","List2","bread",1,6,6,1,490,490,"unrelated","breadth","bread","th",7,2,5,"opaque","consonant",76.9836,1.89200328,4.40246,0.73259156,2.58261681,"breadth","low","high","high","high","A",490,6.19440539110467,0.00204081632653061
"302",8,102,"dumpling","List2","hear",2,6,6,1,476,476,"unrelated","hearth","hear","th",6,2,4,"opaque","consonant",183.476,2.265939873,4.64044,0.751312984,3.01597326,"hearth","low","high","high","high","A",476,6.16541785423142,0.00210084033613445
"303",8,103,"random","List2","you",3,6,6,1,484,484,"unrelated","youth","you","th",5,2,3,"opaque","consonant",6334.67,3.801792548,63.4788,1.809416946,2.101114701,"youth","low","low","high","high","A",484,6.18208490671663,0.00206611570247934
"304",8,104,"breadth","List1","kind",4,6,6,1,523,523,"unrelated","kindling","kind","ling",8,4,4,"opaque","consonant",409.846,2.613679063,0.951884,0.290454004,8.998598807,"kindling","low","high","high","high","B",523,6.25958146406492,0.00191204588910134
"305",8,105,"hearth","List1","dump",5,6,6,1,594,594,"unrelated","dumpling","dump","ling",8,4,4,"opaque","consonant",7.67457,0.938247956,0.356957,0.132566086,7.077586563,"dumpling","low","high","high","high","B",594,6.38687931936265,0.00168350168350168
"306",8,106,"youth","List1","ran",6,6,6,1,597,597,"unrelated","random","ran","dom",6,3,3,"opaque","consonant",116.606,2.070429479,18.2643,1.284753233,1.61153864,"random","low","low","high","high","B",597,6.3919171133926,0.0016750418760469
"307",8,107,"pillory","List1","dear",7,6,6,1,504,504,"unrelated","dearth","dear","th",6,2,4,"opaque","consonant",119.58,2.08127528,0.951884,0.290454004,7.16559332690214,"dearth","low","high","high","high","B",504,6.22257626807137,0.00198412698412698
"308",8,108,"hickory","List2","car",8,6,6,1,593,593,"unrelated","career","car","eer",6,3,3,"opaque","vowel",274.916,2.440776885,57.1725,1.764717728,1.383097617,"career","low","low","high","low","A",593,6.38519439899773,0.00168634064080944
"309",8,109,"auditory","List2","rat",9,6,6,1,440,440,"unrelated","ratify","rat","ify",6,3,3,"opaque","vowel",8.68594,0.986141774,0.713913,0.233988773,4.214483273,"ratify","low","high","high","high","A",440,6.08677472691231,0.00227272727272727
"310",8,110,"testify","List2","fact",10,6,6,1,636,636,"unrelated","factory","fact","ory",7,3,4,"opaque","vowel",448.635,2.65286011,39.2652,1.604929861,1.65294457584216,"factory","low","low","high","high","A",636,6.45519856334012,0.00157232704402516
"311",8,111,"dearth","List2","pill",11,6,6,1,517,517,"unrelated","pillory","pill","ory",7,3,4,"opaque","vowel",13.8023,1.170329202,0.416449,0.151200942,7.740224226,"pillory","low","high","high","high","A",517,6.24804287450843,0.00193423597678917
"312",8,112,"career","List1","hick",12,6,6,1,887,887,"unrelated","hickory","hick","ory",7,3,4,"opaque","vowel",1.24935,0.352057037,1.13036,0.328452999,1.071864276,"hickory","low","low","high","low","B",887,6.78784498230958,0.00112739571589628
"313",8,113,"ratify","List1","audit",13,6,6,1,666,666,"unrelated","auditory","audit","ory",8,3,5,"opaque","vowel",1.6063,0.416024404,0.356957,0.132566086,3.138241562,"auditory","low","high","high","high","B",666,6.50128967054039,0.0015015015015015
"314",8,114,"factory","List1","test",14,6,6,1,605,605,"unrelated","testify","test","ify",7,3,4,"opaque","vowel",79.4228,1.905379189,5.23536,0.794861533,2.397120891,"testify","low","high","high","high","B",605,6.40522845803084,0.00165289256198347
"315",8,115,"boredom","List2","seed",15,6,6,1,478,478,"unrelated","seedling","seed","ling",8,4,4,"transparent","consonant",28.616,1.471526401,0.594928,0.202741082,7.258155965,"seedling","low","high","high","high","A",478,6.16961073249146,0.00209205020920502
"316",8,116,"tenth","List2","warm",16,6,6,1,465,465,"unrelated","warmth","warm","th",6,2,4,"transparent","consonant",94.177,1.978532012,24.987,1.414756146,1.398496848,"warmth","low","low","high","low","A",465,6.14203740558736,0.0021505376344086
"317",8,117,"freedom","List2","four",17,6,6,1,597,597,"unrelated","fourth","four","th",6,2,4,"transparent","consonant",319.714,2.506117918,45.274,1.665337042,1.504871298,"fourth","low","low","high","high","A",597,6.3919171133926,0.0016750418760469
"318",8,118,"kingdom","List2","boy",18,6,6,1,547,547,"unrelated","boyhood","boy","hood",7,4,3,"transparent","consonant",223.871,2.351933451,4.52145,0.742053144,3.16949462,"boyhood","low","high","high","high","A",547,6.30444880242198,0.00182815356489945
"319",8,119,"sapling","List2","eleven",19,6,6,1,491,491,"unrelated","eleventh","eleven","th",8,2,6,"transparent","consonant",40.0386,1.613192537,4.69993,0.755869522,2.134220904,"eleventh","low","low","high","high","A",491,6.19644412779452,0.00203665987780041
"320",8,120,"earthling","List2","six",20,6,6,1,527,527,"unrelated","sixth","six","th",5,2,3,"transparent","consonant",203.227,2.310113158,16.063,1.232055391,1.875007547,"sixth","low","low","high","high","A",527,6.26720054854136,0.00189753320683112
"321",8,121,"growth","List2","duck",21,6,6,1,623,623,"unrelated","duckling","duck","ling",8,4,4,"transparent","consonant",9.8758,1.036461213,0.297464,0.113095317,9.164492672,"duckling","low","high","high","high","A",623,6.43454651878745,0.00160513643659711
"322",8,122,"serfdom","List2","star",22,6,6,1,560,560,"unrelated","stardom","star","dom",7,3,4,"transparent","consonant",54.6738,1.745650865,1.13036,0.328452999,5.314766085,"stardom","low","high","high","high","A",560,6.32793678372919,0.00178571428571429
"323",8,123,"health","List2","man",23,6,6,1,391,391,"unrelated","manhood","man","hood",7,4,3,"transparent","consonant",1024.11,3.01077047,6.06826,0.849312516,3.5449500740138,"manhood","low","high","high","high","A",391,5.96870755998537,0.00255754475703325
"324",8,124,"seedling","List1","bore",24,6,6,1,501,501,"unrelated","boredom","bore","dom",7,3,4,"transparent","consonant",28.497,1.469777848,15.2301,1.210321196,1.214370079,"boredom","low","low","high","low","B",501,6.21660610108486,0.00199600798403194
"325",8,125,"warmth","List1","ten",25,6,6,1,555,555,"unrelated","tenth","ten","th",5,2,3,"transparent","consonant",219.647,2.343698027,10.5302,1.061836841,2.207211065,"tenth","low","low","high","high","B",555,6.31896811374643,0.0018018018018018
"326",8,126,"fourth","List1","free",26,6,6,1,687,687,"unrelated","freedom","free","dom",7,3,4,"transparent","consonant",209.652,2.323565587,101.673,2.011456252,1.155165857,"freedom","low","low","high","low","B",687,6.53233429222235,0.00145560407569141
"327",8,127,"boyhood","List1","king",27,6,6,1,688,688,"unrelated","kingdom","king","dom",7,3,4,"transparent","consonant",91.7378,1.967256789,28.973,1.476730214,1.332170744,"kingdom","low","low","high","low","B",688,6.53378883793334,0.00145348837209302
"328",8,128,"eleventh","List1","sap",28,6,6,1,916,916,"unrelated","sapling","sap","ling",7,4,3,"transparent","consonant",2.79616,0.579344509,0.713913,0.233988773,2.475950017,"sapling","low","high","high","high","B",916,6.82001636467413,0.00109170305676856
"329",8,129,"sixth","List1","earth",29,6,6,1,619,619,"unrelated","earthling","earth","ling",9,4,5,"transparent","consonant",161.999,2.21218494,0.237971,0.092710471,23.861219690479,"earthling","low","high","high","high","B",619,6.4281052726846,0.00161550888529887
"330",8,130,"duckling","List1","grow",30,6,6,1,522,522,"unrelated","growth","grow","th",6,2,4,"transparent","consonant",95.4264,1.984195953,121.841,2.089343343,0.949674432,"growth","low","low","low","low","B",522,6.25766758788264,0.00191570881226054
"331",8,131,"stardom","List1","serf",31,6,5,0,786,NA,"unrelated","serfdom","serf","dom",7,3,4,"transparent","consonant",0.356957,0.132566086,0.237971,0.092710471,1.429893335,"serfdom","low","low","high","low","B",591.400743331876,6.38249386431964,0.00169090081687441
"332",8,132,"manhood","List1","heal",32,6,6,1,486,486,"unrelated","health","heal","th",6,2,4,"transparent","consonant",4.75942,0.76037875,130.587,2.119212986,0.35880242083473,"health","low","low","low","low","B",486,6.18620862390049,0.00205761316872428
"333",8,133,"classify","List2","cash",33,6,6,1,539,539,"unrelated","cashier","cash","ier",7,3,4,"transparent","vowel",54.3169,1.742857834,2.20123,0.505316878,3.449039418,"cashier","low","high","high","high","A",539,6.289715570909,0.00185528756957328
"334",8,134,"hotelier","List2","solid",34,6,6,1,539,539,"unrelated","solidify","solid","ify",8,3,5,"transparent","vowel",46.5233,1.67690659,0.475942,0.169069291,9.91845751622358,"solidify","low","high","high","high","A",539,6.289715570909,0.00185528756957328
"335",8,135,"marketeer","List2","fort",35,6,6,1,599,599,"unrelated","fortify","fort","ify",7,3,4,"transparent","vowel",23.7971,1.394400893,1.18986,0.340416351,4.09616308,"fortify","low","high","high","high","A",599,6.39526159811545,0.00166944908180301
"336",8,136,"justify","List2","profit",36,6,6,1,526,526,"unrelated","profiteer","profit","eer",9,3,6,"transparent","vowel",36.945,1.579154557,0.118986,0.048824653,32.343384492,"profiteer","low","high","high","high","A",526,6.26530121273771,0.00190114068441065
"337",8,137,"courtier","List2","direct",37,6,6,1,892,892,"unrelated","directory","direct","ory",9,3,6,"transparent","vowel",94.2365,1.978803426,3.98601,0.697753145,2.835964893,"directory","low","high","high","high","A",892,6.79346613258001,0.00112107623318386
"338",8,138,"nullify","List2","arm",38,6,6,1,569,569,"unrelated","armory","arm","ory",6,3,3,"transparent","vowel",111.132,2.049729568,0,0,2049729568,"armory","low","high","high","high","A",569,6.34388043412633,0.00175746924428822
"339",8,139,"racketeer","List2","acid",39,6,6,1,771,771,"unrelated","acidify","acid","ify",7,3,4,"transparent","vowel",21.8933,1.359708399,0,0,1359708399,"acidify","low","high","high","high","A",771,6.64768837356333,0.0012970168612192
"340",8,140,"musketeer","List2","front",40,6,6,1,455,455,"unrelated","frontier","front","ier",8,3,5,"transparent","vowel",263.077,2.421730578,13.0884,1.148861674,2.107939216,"frontier","low","low","high","high","A",455,6.12029741895095,0.0021978021978022
"341",8,141,"clothier","List2","humid",41,6,6,1,521,521,"unrelated","humidify","humid","ify",8,3,5,"transparent","vowel",3.03413,0.605749889,0.237971,0.092710471,6.533780661,"humidify","low","high","high","high","A",521,6.25575004175337,0.00191938579654511
"342",8,142,"cashier","List1","class",42,6,6,1,595,595,"unrelated","classify","class","ify",8,3,5,"transparent","vowel",203.287,2.310240731,1.6658,0.425827564,5.425296343,"classify","low","high","high","high","B",595,6.38856140554563,0.00168067226890756
"343",8,143,"solidify","List1","hotel",43,6,6,1,595,595,"unrelated","hotelier","hotel","ier",8,3,5,"transparent","vowel",125.589,2.102395969,0.178478,0.071321479,29.47773895,"hotelier","low","high","high","high","B",595,6.38856140554563,0.00168067226890756
"344",8,144,"fortify","List1","market",44,6,6,1,467,467,"unrelated","marketeer","market","eer",9,3,6,"transparent","vowel",132.55,2.125643892,0.178478,0.071321479,29.803698577,"marketeer","low","high","high","high","B",467,6.1463292576689,0.00214132762312634
"345",8,145,"profiteer","List1","just",45,6,6,1,572,572,"unrelated","justify","just","ify",7,3,4,"transparent","vowel",1236.44,3.09252415,16.42,1.241048151,2.49186475562312,"justify","low","high","high","high","B",572,6.3491389913798,0.00174825174825175
"346",8,146,"directory","List1","court",46,6,6,1,704,704,"unrelated","courtier","court","ier",8,3,5,"transparent","vowel",128.088,2.110885872,1.6063,0.416024404,5.073947217,"courtier","low","high","high","high","B",704,6.55677835615804,0.00142045454545455
"347",8,147,"armory","List1","null",47,6,5,0,885,NA,"unrelated","nullify","null","ify",7,3,4,"transparent","vowel",0.356957,0.132566086,0.713913,0.233988773,0.566548915,"nullify","low","low","low","low","B",591.400743331876,6.38249386431964,0.00169090081687441
"348",8,148,"acidify","List1","racket",48,6,6,1,495,495,"unrelated","racketeer","racket","eer",9,3,6,"transparent","vowel",11.7201,1.104490526,0.0594928,0.02509801,44.0070938689126,"racketeer","low","high","high","high","B",495,6.20455776256869,0.00202020202020202
"349",8,149,"frontier","List1","musket",49,6,5,0,1044,NA,"unrelated","musketeer","musket","eer",9,3,6,"transparent","vowel",0.65442,0.218645772,0,0,218645772,"musketeer","low","high","high","high","B",591.400743331876,6.38249386431964,0.00169090081687441
"350",8,150,"humidify","List1","cloth",50,6,6,1,626,626,"unrelated","clothier","cloth","ier",8,3,5,"transparent","vowel",47.2967,1.683917457,0,0,1683917457,"clothier","low","high","high","high","B",626,6.4393503711001,0.00159744408945687
"351",8,151,"imply","List2","wit",51,6,6,1,547,547,"unrelated","witness","wit","ness",7,4,3,"opaque","consonant",11.0062,1.079405574,23.7376,1.393357563,0.774679524,"witness","high","low","low","low","A",547,6.30444880242198,0.00182815356489945
"352",8,152,"witness","List1","imp",52,6,6,1,908,908,"unrelated","imply","imp","ly",5,2,3,"opaque","consonant",1.01138,0.303494127,12.1365,1.11847967,0.271345233059672,"imply","high","low","low","low","B",908,6.81124437860129,0.00110132158590308
"353",8,153,"flower","List2","list",53,6,6,1,565,565,"unrelated","listen","list","en",6,2,4,"opaque","vowel",74.6634,1.878885853,75.4368,1.883302497,0.99765484,"listen","high","low","low","low","A",565,6.33682573114644,0.00176991150442478
"354",8,154,"traitor","List2","past",54,6,6,1,487,487,"unrelated","pastor","past","or",6,2,4,"opaque","vowel",273.786,2.438994602,3.62906,0.66549281,3.66494507782143,"pastor","high","high","high","high","A",487,6.18826412308259,0.00205338809034908
"355",8,155,"limber","List2","ban",55,6,6,1,599,599,"unrelated","banish","ban","ish",6,3,3,"opaque","vowel",13.6833,1.166823672,2.14174,0.497170241,2.346929831,"banish","high","low","high","high","A",599,6.39526159811545,0.00166944908180301
"356",8,156,"hunger","List2","heath",56,6,6,1,490,490,"unrelated","heathen","heath","en",7,2,5,"opaque","vowel",13.6238,1.165060239,2.55819,0.551229135,2.113567957,"heathen","high","low","high","high","A",490,6.19440539110467,0.00204081632653061
"357",8,157,"pollen","List2","mist",57,6,6,1,556,556,"unrelated","mister","mist","er",6,2,4,"opaque","vowel",13.8023,1.170329202,7.02015,0.904182491,1.294350656,"mister","high","low","high","low","A",556,6.32076829425058,0.00179856115107914
"358",8,158,"vanish","List2","rapt",58,6,6,1,549,549,"unrelated","raptor","rapt","or",6,2,4,"opaque","vowel",2.14174,0.497170241,0,0,497170241,"raptor","high","high","high","high","A",549,6.30809844150953,0.00182149362477231
"359",8,159,"listen","List1","flow",59,6,6,1,626,626,"unrelated","flower","flow","er",6,2,4,"opaque","vowel",41.9424,1.632886313,27.9616,1.461822551,1.11702088,"flower","high","low","high","low","B",626,6.4393503711001,0.00159744408945687
"360",8,160,"pastor","List1","trait",60,6,6,1,668,668,"unrelated","traitor","trait","or",7,2,5,"opaque","vowel",3.2721,0.63064141,6.18725,0.856562752,0.736246594649674,"traitor","high","low","low","low","B",668,6.50428817353665,0.00149700598802395
"361",8,161,"banish","List1","limb",61,6,6,1,643,643,"unrelated","limber","limb","er",6,2,4,"opaque","vowel",7.91254,0.950001492,0.773406,0.248808173,3.818208529,"limber","high","high","high","high","B",643,6.46614472423762,0.0015552099533437
"362",8,162,"heathen","List1","hung",62,6,6,1,666,666,"unrelated","hunger","hung","er",6,2,4,"opaque","vowel",58.6004,1.775249174,25.2249,1.418713841,1.251308841,"hunger","high","low","high","low","B",666,6.50128967054039,0.0015015015015015
"363",8,163,"mister","List1","poll",63,6,6,1,1353,NA,"unrelated","pollen","poll","en",6,2,4,"opaque","vowel",8.38848,0.972595285,5.88978,0.838205355,1.160330554,"pollen","high","low","high","low","B",591.400743331876,6.38249386431964,0.00169090081687441
"364",8,164,"raptor","List1","van",64,6,6,1,685,685,"unrelated","vanish","van","ish",6,3,3,"opaque","vowel",56.3396,1.758454659,6.18725,0.856562752,2.052919827,"vanish","high","low","high","high","B",685,6.52941883826223,0.00145985401459854
"365",8,165,"weakness","List2","help",65,6,6,1,434,434,"unrelated","helpless","help","less",8,4,4,"transparent","consonant",375.221,2.575443033,19.3351,1.308246312,1.968622428,"helpless","high","low","high","high","A",434,6.07304453410041,0.00230414746543779
"366",8,166,"greatly","List2","chief",66,6,6,1,526,526,"unrelated","chiefly","chief","ly",7,2,5,"transparent","consonant",105.54,2.027512692,11.3036,1.090032203,1.860048432,"chiefly","high","low","high","high","A",526,6.26530121273771,0.00190114068441065
"367",8,167,"illness","List2","strong",67,6,6,1,478,478,"unrelated","strongly","strong","ly",8,2,6,"transparent","consonant",167.948,2.227753055,42.3588,1.637077254,1.360811195,"strongly","high","low","high","low","A",478,6.16961073249146,0.00209205020920502
"368",8,168,"calmness","List2","deaf",68,6,6,1,563,563,"unrelated","deafness","deaf","ness",8,4,4,"transparent","consonant",9.51884,1.021967849,2.08225,0.488867861,2.090478693,"deafness","high","low","high","high","A",563,6.33327962813969,0.00177619893428064
"369",8,169,"deathlike","List2","dead",69,6,6,1,571,571,"unrelated","deadly","dead","ly",6,2,4,"transparent","consonant",190.079,2.28121296,13.6833,1.166823672,1.95506228814746,"deadly","high","low","high","high","A",571,6.34738920965601,0.00175131348511384
"370",8,170,"waiflike","List2","sick",70,6,6,1,699,699,"unrelated","sickness","sick","ness",8,4,4,"transparent","consonant",70.6179,1.855021582,16.4795,1.242529006,1.492940263,"sickness","high","low","high","low","A",699,6.54965074223381,0.00143061516452074
"371",8,171,"highly","List2","worth",71,6,6,1,479,479,"unrelated","worthless","worth","less",9,4,5,"transparent","consonant",99.1149,2.000498718,5.17587,0.790698146,2.530040984,"worthless","high","high","high","high","A",479,6.17170059741091,0.00208768267223382
"372",8,172,"stainless","List2","thank",72,6,6,1,529,529,"unrelated","thankless","thank","less",9,4,5,"transparent","consonant",69.4875,1.848112108,0.65442,0.218645772,8.452539844,"thankless","high","high","high","high","A",529,6.2709884318583,0.00189035916824197
"373",8,173,"warlike","List2","tooth",73,6,6,1,439,439,"unrelated","toothless","tooth","less",9,NA,5,"transparent","consonant",13.5643,1.163289616,1.84428,0.453972347,2.562468003,"toothless","high","high","high","high","A",439,6.08449941307517,0.00227790432801822
"374",8,174,"helpless","List1","weak",74,6,6,1,661,661,"unrelated","weakness","weak","ness",8,4,4,"transparent","consonant",47.9512,1.689763343,21.8338,1.358578193,1.243773344,"weakness","high","low","high","low","B",661,6.49375383985169,0.00151285930408472
"375",8,175,"chiefly","List1","great",75,6,6,1,451,451,"unrelated","greatly","great","ly",7,2,5,"transparent","consonant",639.726,2.806672348,40.3361,1.616329499,1.736448136,"greatly","high","low","high","high","B",451,6.11146733950268,0.00221729490022173
"376",8,176,"strongly","List1","ill",76,6,6,1,628,628,"unrelated","illness","ill","ness",7,4,3,"transparent","consonant",56.5181,1.759804532,35.3982,1.561079907,1.127299457,"illness","high","low","high","low","B",628,6.4425401664682,0.00159235668789809
"377",8,177,"deafness","List1","calm",77,6,6,1,608,608,"unrelated","calmness","calm","ness",8,4,4,"transparent","consonant",41.288,1.626217146,1.01138,0.303494127,5.358315025,"calmness","high","high","high","high","B",608,6.41017488196617,0.00164473684210526
"378",8,178,"deadly","List1","death",78,6,6,1,871,871,"unrelated","deathlike","death","like",9,4,5,"transparent","consonant",233.152,2.369497872,0,0,2369497872,"deathlike","high","high","high","high","B",871,6.7696419768525,0.00114810562571757
"379",8,179,"sickness","List1","waif",79,6,5,0,1206,NA,"unrelated","waiflike","waif","like",8,4,4,"transparent","consonant",0.773406,0.248808173,0,0,248808173,"waiflike","high","high","high","high","B",591.400743331876,6.38249386431964,0.00169090081687441
"380",8,180,"worthless","List1","high",80,6,6,1,588,588,"unrelated","highly","high","ly",6,2,4,"transparent","consonant",369.866,2.56921702,93.8796,1.977172845,1.2994397658241,"highly","high","low","high","low","B",588,6.37672694789863,0.00170068027210884
"381",8,181,"thankless","List1","stain",81,6,6,1,525,525,"unrelated","stainless","stain","less",9,4,5,"transparent","consonant",7.3771,0.9230937,2.37971,0.528879437,1.7453764197957,"stainless","high","low","high","high","B",525,6.26339826259162,0.0019047619047619
"382",8,182,"toothless","List1","war",82,6,6,1,543,543,"unrelated","warlike","war","like",7,4,3,"transparent","consonant",340.12,2.532907183,1.6063,0.416024404,6.088362011,"warlike","high","high","high","high","B",543,6.29710931993394,0.00184162062615101
"383",8,183,"drawer","List2","tract",83,6,6,1,498,498,"unrelated","tractor","tract","or",7,2,5,"transparent","vowel",3.45058,0.648416612,7.25812,0.916881189,0.707198074,"tractor","high","low","low","low","A",498,6.21060007702465,0.00200803212851406
"384",8,184,"greenish","List2","sculpt",84,6,6,1,742,742,"unrelated","sculptor","sculpt","or",8,2,6,"transparent","vowel",0,0,3.62906,0.66549281,0,"sculptor","high","low","low","low","A",742,6.60934924316738,0.00134770889487871
"385",8,185,"bookish","List2","self",85,6,6,1,452,452,"unrelated","selfish","self","ish",7,3,4,"transparent","vowel",38.9083,1.601063228,12.196,1.120442307,1.428956419,"selfish","high","low","high","low","A",452,6.11368217983223,0.00221238938053097
"386",8,186,"drunken","List2","fresh",86,6,6,1,503,503,"unrelated","freshen","fresh","en",7,2,5,"transparent","vowel",73.8305,1.874078647,0.475942,0.169069291,11.084677914,"freshen","high","high","high","high","A",503,6.22059017009974,0.00198807157057654
"387",8,187,"foolish","List2","debt",87,6,6,1,491,491,"unrelated","debtor","debt","or",6,2,4,"transparent","vowel",26.1768,1.434198318,0.951884,0.290454004,4.937781175,"debtor","high","high","high","high","A",491,6.19644412779452,0.00203665987780041
"388",8,188,"freakish","List2","pray",88,6,6,1,518,518,"unrelated","prayer","pray","er",6,2,4,"transparent","vowel",15.1707,1.20872882,20.5845,1.334141993,0.90599713181654,"prayer","high","low","low","low","A",518,6.24997524225948,0.00193050193050193
"389",8,189,"flaxen","List2","profess",89,6,6,1,821,821,"unrelated","professor","profess","or",9,2,7,"transparent","vowel",0.951884,0.290454004,74.9609,1.880590102,0.154448332,"professor","high","low","low","low","A",821,6.71052310945243,0.00121802679658952
"390",8,190,"hunter","List2","soft",90,6,6,1,624,624,"unrelated","soften","soft","en",6,2,4,"transparent","vowel",81.0886,1.914282849,4.04551,0.702905071,2.723387446,"soften","high","high","high","high","A",624,6.43615036836943,0.0016025641025641
"391",8,191,"sailor","List2","fast",91,6,6,1,551,551,"unrelated","fasten","fast","en",6,2,4,"transparent","vowel",102.982,2.016958166,2.85565,0.586097604,3.441334939,"fasten","high","high","high","high","A",551,6.31173480915291,0.00181488203266788
"392",8,192,"tractor","List1","draw",92,6,6,1,510,510,"unrelated","drawer","draw","er",6,2,4,"transparent","vowel",58.7194,1.776115436,16.0036,1.23054088,1.44336158466888,"drawer","high","low","high","low","B",510,6.23441072571837,0.00196078431372549
"393",8,193,"sculptor","List1","green",93,6,6,1,566,566,"unrelated","greenish","green","ish",8,3,5,"transparent","vowel",154.027,2.190407343,2.73667,0.572484745,3.826140973,"greenish","high","high","high","high","B",566,6.33859407820318,0.00176678445229682
"394",8,194,"selfish","List1","book",94,6,6,1,544,544,"unrelated","bookish","book","ish",7,3,4,"transparent","vowel",252.249,2.403547739,1.6063,0.416024404,5.777420051,"bookish","high","high","high","high","B",544,6.29894924685594,0.00183823529411765
"395",8,195,"freshen","List1","drunk",95,6,6,1,585,585,"unrelated","drunken","drunk","en",7,2,5,"transparent","vowel",38.4918,1.596506929,8.21,0.96425963,1.65568160034276,"drunken","high","low","high","high","B",585,6.37161184723186,0.00170940170940171
"396",8,196,"debtor","List1","fool",96,6,6,1,462,462,"unrelated","foolish","fool","ish",7,3,4,"transparent","vowel",37.4804,1.585239578,20.525,1.33294316,1.18927770094167,"foolish","high","low","high","low","B",462,6.13556489108174,0.00216450216450216
"397",8,197,"prayer","List1","freak",97,6,6,1,578,578,"unrelated","freakish","freak","ish",8,3,5,"transparent","vowel",5.35435,0.803071132,0.713913,0.233988773,3.432092567,"freakish","high","high","high","high","B",578,6.35957386867238,0.00173010380622837
"398",8,198,"professor","List1","flax",98,6,6,1,547,547,"unrelated","flaxen","flax","en",6,2,4,"transparent","vowel",2.20123,0.505316878,0.118986,0.048824653,10.349625376,"flaxen","high","high","high","high","B",547,6.30444880242198,0.00182815356489945
"399",8,199,"soften","List1","hunt",99,6,6,1,525,525,"unrelated","hunter","hunt","er",6,2,4,"transparent","vowel",22.9642,1.379562935,11.8391,1.108534581,1.244492465,"hunter","high","low","high","low","B",525,6.26339826259162,0.0019047619047619
